Acquisition Time[ms], ACC_X 0, ACC_Y 0, ACC_Z 0, ACC_X 1, ACC_Y 1, ACC_Z 1, 
0.000,-0.921903,0.045900,-0.357677,-0.477798,0.009522,-0.878689,
1.007,-0.921903,0.044435,-0.361095,-0.476821,0.012207,-0.876735,
0.957,-0.921903,0.044435,0.000000,-0.484390,0.012207,-0.876735,
0.000,-0.921903,0.045167,-0.375011,-0.468825,0.012696,-0.876980,
0.989,-0.923368,0.045167,-0.359874,-0.484390,0.011719,-0.876735,
1.025,-0.937528,0.045167,-0.359874,0.003906,0.011719,-0.876735,
0.000,-0.921903,0.043702,-0.014893,-0.468825,0.009766,-0.876247,
0.975,-0.921903,0.044923,-0.362560,-0.476577,0.008789,-0.878444,
0.994,-0.921903,0.044923,-0.362560,-0.484390,0.008789,-0.878444,
0.000,-0.921903,0.044679,-0.362071,-0.484390,0.011231,-0.879177,
1.002,-0.921903,0.044191,-0.359386,-0.481948,0.009766,-0.890652,
1.013,-0.921903,0.044191,-0.359386,-0.481948,0.009766,-0.876491,
0.000,-0.921903,0.045412,-0.358165,-0.483413,0.008545,-0.875271,
0.986,-0.921903,0.044191,-0.355724,-0.484390,0.011231,-0.876735,
1.033,-0.921903,0.044191,-0.355724,-0.484390,0.000000,-0.876735,
0.000,-0.910672,0.045412,-0.356700,-0.475844,0.013672,-0.875271,
0.970,-0.921903,0.044191,-0.357433,-0.484390,0.013428,-0.874782,
0.997,-0.921903,0.044191,-0.357433,-0.476089,0.013428,-0.874782,
0.000,-0.921903,0.039064,-0.355968,-0.475600,0.014405,-0.878689,
0.999,-0.921903,0.040040,-0.359386,-0.484390,0.016602,-0.878933,
1.000,-0.921903,0.040040,-0.359386,-0.484390,0.016602,-0.873806,
0.000,-0.921903,0.040284,-0.362316,-0.484390,0.015137,-0.873806,
1.000,-0.921903,0.040040,-0.360851,-0.484390,0.014161,-0.874782,
1.002,-0.921903,0.041017,-0.358653,-0.478042,0.013184,-0.877712,
0.000,-0.921903,0.041017,-0.358653,-0.478042,0.013184,-0.877712,
1.001,-0.921903,0.041993,-0.359630,-0.476333,0.011231,-0.879665,
0.999,-0.921903,0.045167,-0.366466,-0.473403,0.011475,-0.882351,
0.000,-0.921903,0.045167,-0.366466,0.010987,0.011475,-0.882351,
0.998,-0.921903,0.043947,-0.365978,-0.484390,0.013916,-0.008789,
1.000,-0.921903,0.040529,-0.361095,-0.484390,0.013672,-0.883816,
0.000,-0.921903,0.040529,-0.361095,-0.476821,0.013672,-0.883816,
1.002,-0.921903,0.040040,-0.358653,-0.484390,0.012940,-0.881130,
0.999,-0.921903,0.042238,-0.354503,-0.476821,0.011475,-0.890652,
0.000,-0.921903,0.042238,-0.354503,-0.476821,0.011475,-0.880398,
0.999,-0.921903,-0.002441,-0.353282,-0.475112,0.009766,-0.879665,
1.000,-0.921903,0.045167,-0.360118,-0.476821,0.009766,-0.878933,
0.000,-0.921903,0.045167,-0.360118,-0.476821,0.009766,-0.878933,
1.000,-0.937528,0.046632,-0.360851,-0.478042,0.011475,-0.877956,
1.000,0.000000,0.045656,-0.359142,-0.477798,0.013184,-0.875271,
0.000,-0.937528,0.045656,-0.359142,-0.484390,0.013184,-0.875271,
1.000,-0.921903,0.046144,-0.363292,-0.484390,0.011231,-0.877224,
1.000,-0.921903,0.043947,-0.360362,-0.475600,0.011231,-0.006348,
0.000,-0.921903,0.043947,-0.360362,-0.484390,0.011231,-0.881374,
1.001,-0.937528,0.041017,-0.361583,-0.476333,0.010010,-0.890652,
1.000,-0.937528,0.043702,-0.362804,-0.484390,0.009522,-0.871852,
0.000,-0.937528,0.043702,-0.362804,-0.484390,0.009522,-0.871852,
1.009,-0.937528,0.043458,-0.357188,-0.480972,0.012207,-0.878689,
0.993,-0.937528,0.044679,-0.354015,-0.484390,0.011231,-0.879421,
0.000,-0.937528,0.047609,-0.357433,-0.479995,0.011231,-0.874782,
0.997,-0.921903,0.047609,-0.357433,-0.477309,0.009278,-0.874782,
1.000,-0.937528,0.047121,-0.356456,-0.484390,0.008789,-0.877468,
0.000,-0.937528,0.043702,-0.356944,-0.477065,0.012207,-0.879421,
1.004,-0.937528,0.043702,-0.345714,-0.477065,0.012207,-0.879421,
1.061,-0.921903,0.040284,-0.360607,-0.477065,0.013672,-0.881130,
0.221,-0.921903,0.041993,-0.361583,-0.474868,0.012452,-0.880153,
1.004,-0.921903,0.041993,-0.361583,-0.484390,0.012452,-0.880153,
0.000,-0.937528,0.046876,-0.359386,-0.483901,0.013428,-0.880642,
1.000,-0.937528,0.043214,-0.360362,-0.479263,0.013672,-0.886746,
1.010,-0.937528,0.043214,-0.360362,-0.484390,0.013672,-0.886746,
0.000,-0.937528,0.043458,-0.365490,-0.479995,0.011475,-0.885525,
0.990,-0.937528,0.048097,-0.366954,-0.479018,0.010254,-0.881374,
1.002,-0.937528,0.048097,-0.366954,-0.484390,0.010254,-0.881374,
0.000,-0.937528,0.046876,-0.363292,-0.477309,0.010498,-0.874050,
0.998,-0.937528,0.043702,-0.360851,-0.478042,0.011475,-0.868190,
1.000,-0.937528,0.043702,-0.360851,-0.478042,0.011475,-0.868190,
0.000,-0.921903,0.042970,-0.361583,-0.476821,0.012696,-0.874294,
0.999,-0.921903,0.043947,-0.358165,-0.484390,0.016358,-0.875271,
1.001,-0.921903,0.043947,-0.358165,-0.484390,0.016358,-0.875271,
0.000,-0.937528,0.042970,-0.355479,-0.475844,0.016358,-0.876003,
1.000,-0.921903,0.044923,-0.355479,-0.484390,0.011963,-0.877468,
1.000,-0.921903,0.044923,-0.011719,-0.478286,0.011963,-0.877468,
0.000,-0.921903,0.046144,-0.356700,-0.479263,0.010498,-0.876491,
1.000,-0.921903,0.044191,-0.359630,-0.484390,0.010498,-0.876003,
1.000,-0.921903,0.043458,-0.364025,-0.484390,0.010498,-0.876003,
0.000,-0.921903,0.012207,-0.364025,-0.474380,0.007813,-0.876980,
1.000,-0.937528,0.044435,-0.366710,-0.484390,0.007569,-0.877468,
1.000,-0.937528,0.043947,-0.365490,-0.475112,0.011719,-0.876491,
0.000,-0.937528,0.043947,-0.365490,-0.484390,0.011719,-0.876491,
1.000,-0.921903,0.043947,-0.361583,-0.484390,0.012207,-0.879177,
1.000,-0.921903,0.042970,-0.357433,-0.484390,0.012207,-0.879177,
0.000,-0.921903,0.042970,-0.357433,0.001709,0.012207,-0.879177,
1.000,-0.921903,0.042482,-0.354503,-0.484390,0.006592,-0.875271,
1.000,-0.921903,0.043947,-0.354747,-0.476333,0.006592,-0.872585,
0.000,-0.921903,0.043947,-0.357677,-0.476333,0.006592,-0.013184,
1.000,-0.906338,0.041993,-0.357677,-0.475600,0.008301,-0.875759,
0.999,-0.921903,0.042970,-0.361583,-0.484390,0.011231,-0.879177,
0.000,-0.921903,0.042970,-0.361583,-0.484390,0.011231,-0.879177,
1.001,-0.921903,0.048097,-0.365490,-0.477309,0.009766,-0.882839,
1.000,-0.921903,0.044923,-0.367199,-0.484390,0.011963,-0.884792,
0.000,-0.921903,0.031251,-0.367199,-0.470717,-0.003662,-0.884792,
1.000,-0.921903,0.039308,-0.361095,-0.484390,0.012452,-0.878933,
1.001,-0.937528,0.038087,-0.360118,-0.484390,0.009278,-0.874538,
0.000,-0.937528,0.038087,-0.360118,-0.484390,0.009278,-0.874538,
1.000,-0.921903,0.043214,-0.357188,-0.484390,0.009033,-0.875759,
1.000,-0.921903,0.048830,-0.354747,-0.473647,0.009278,-0.875271,
0.000,-0.921903,0.048830,-0.354747,-0.484390,0.009278,-0.875271,
0.999,-0.921903,0.046388,-0.360607,-0.484390,0.011475,-0.000244,
1.000,-0.921903,0.043702,-0.360851,-0.483169,0.011231,-0.874294,
0.000,-0.921903,0.043702,-0.360851,-0.483169,0.011231,-0.874294,
1.000,-0.921903,0.043458,-0.359630,-0.479995,0.012696,-0.873806,
1.000,-0.921903,0.041749,-0.361095,-0.477065,0.016846,-0.872097,
0.000,-0.921903,0.042726,-0.360851,-0.477065,0.016846,-0.872097,
1.000,-0.921903,0.042726,-0.360851,-0.476821,0.016358,-0.874782,
1.000,-0.921903,0.045167,-0.362071,-0.479995,0.013916,-0.879177,
0.000,-0.921903,0.043947,-0.359386,-0.484390,0.000000,-0.878933,
1.000,-0.909695,0.043947,-0.359386,-0.479507,0.012207,-0.878933,
1.003,-0.921903,0.041261,-0.354259,-0.484390,0.014161,-0.875515,
0.000,-0.921903,0.040529,-0.361095,-0.478042,0.012696,-0.873806,
0.998,-0.921903,0.040529,-0.361095,-0.484390,0.012696,-0.873806,
1.000,-0.921903,0.043702,-0.361583,-0.479751,0.010987,-0.890652,
0.000,-0.921903,0.044435,-0.360362,-0.477798,0.014649,-0.879421,
0.999,-0.921903,0.013184,-0.360362,-0.477798,0.014649,-0.879421,
0.999,-0.921903,0.042726,-0.359874,-0.484390,0.015381,-0.879909,
0.000,-0.921903,0.043947,-0.360362,-0.477798,0.013428,-0.879177,
1.001,-0.921903,0.043947,-0.360362,-0.477798,0.013428,-0.879177,
1.000,-0.937528,0.031251,-0.360362,-0.471694,0.010498,-0.878200,
0.000,-0.937528,0.044679,-0.358165,-0.484390,0.010498,-0.876735,
1.000,-0.937528,0.044679,-0.358165,-0.484390,0.010498,-0.876735,
1.000,-0.937528,0.044435,-0.362560,-0.480483,0.012696,-0.879421,
0.000,-0.921903,0.041749,-0.364513,-0.478530,0.014893,-0.878689,
1.000,-0.921903,0.041749,-0.374767,-0.484390,0.014893,-0.878689,
1.000,-0.921903,0.041749,-0.364269,-0.476333,0.014893,-0.874050,
0.000,-0.921903,0.041749,-0.362316,-0.476821,0.013672,-0.873073,
1.000,-0.921903,0.041749,-0.362316,-0.476821,0.013672,-0.873073,
1.000,-0.937528,0.031251,-0.358165,-0.472670,0.012452,-0.875759,
0.331,-0.921903,0.044679,-0.358165,-0.477065,0.011719,-0.875759,
1.011,-0.921903,0.043702,-0.366710,-0.484390,0.011719,-0.875759,
0.000,-0.921903,0.043702,-0.366710,-0.484390,0.011719,-0.877468,
1.047,-0.921903,0.044923,-0.369884,-0.481460,0.011719,-0.877468,
0.947,-0.937528,0.044435,-0.360362,-0.481460,0.011719,-0.002441,
0.000,-0.937528,0.044435,-0.360362,-0.484390,0.012940,-0.881618,
1.000,-0.921903,0.043702,-0.358898,-0.484390,0.012940,-0.010498,
0.999,-0.906338,0.045412,-0.352306,-0.477553,0.012940,-0.878200,
0.000,-0.921903,0.045412,-0.352306,-0.478774,0.010498,-0.003174,
1.001,-0.906338,0.042726,-0.362316,-0.484390,0.011719,-0.870876,
1.000,-0.937528,0.042726,-0.365245,-0.484390,0.014405,-0.876735,
0.000,-0.937528,0.042726,-0.365245,-0.481460,0.014405,-0.876735,
1.000,-0.937528,0.045167,-0.358409,-0.482681,0.012207,-0.878444,
0.999,-0.921903,0.042238,-0.352794,-0.479751,0.010743,-0.872585,
0.000,-0.921903,0.042238,-0.352794,-0.479751,0.010743,-0.872585,
1.000,-0.921903,0.042238,-0.355235,-0.476821,0.007569,-0.873317,
1.000,-0.921903,0.042726,-0.362071,-0.484390,0.007080,-0.870143,
0.000,-0.921903,0.042726,-0.362071,-0.476089,0.007080,-0.870143,
1.001,-0.937528,0.043702,-0.361339,-0.476089,0.013428,-0.870143,
0.999,-0.921903,0.045167,-0.358898,-0.476333,0.015137,-0.890652,
0.000,-0.921903,0.045167,-0.358898,-0.476333,0.015137,-0.875759,
1.001,-0.921903,-0.001709,-0.358898,-0.484390,0.013916,-0.875759,
1.009,-0.921903,0.042970,-0.360851,-0.479507,0.016846,-0.871608,
0.000,-0.921903,0.042970,-0.360851,-0.479507,0.016846,-0.871608,
0.991,-0.921903,0.042726,-0.364269,-0.479018,0.018067,-0.870388,
1.008,-0.921903,0.044191,-0.363780,-0.484390,0.013184,-0.873073,
0.000,-0.921903,0.044191,-0.364513,-0.484390,0.013184,-0.873073,
0.993,-0.921903,0.046388,-0.364513,-0.484390,0.008301,-0.874294,
1.007,-0.921903,0.045412,-0.366710,-0.476577,0.008057,-0.872097,
0.000,-0.921903,0.044923,-0.361095,-0.484390,0.008057,-0.872097,
0.992,-0.921903,0.044923,-0.374279,-0.476821,0.011231,-0.871608,
1.008,-0.921903,0.046388,-0.358165,-0.484390,0.012207,-0.870632,
0.000,-0.921903,0.045656,-0.360118,-0.484390,0.012207,-0.870632,
0.992,-0.921903,0.045656,-0.360118,-0.484390,0.011475,-0.870876,
1.008,-0.921903,0.043458,-0.361339,-0.477309,0.010987,-0.875515,
0.000,-0.921903,0.042238,-0.361339,-0.477309,0.009522,-0.876980,
0.993,-0.921903,0.042238,-0.361339,-0.484390,0.000000,-0.876980,
1.010,-0.912381,0.045167,-0.361339,-0.479995,0.010743,-0.874294,
0.000,-0.921903,0.045656,-0.357433,-0.478286,0.009522,-0.873562,
1.000,-0.921903,0.045656,-0.357433,-0.484390,0.009522,-0.873562,
1.002,-0.919950,0.044923,-0.355968,-0.480483,0.006836,-0.871852,
0.000,-0.921903,0.043702,-0.357433,-0.480239,0.008789,-0.872097,
1.021,-0.921903,0.043702,-0.358898,-0.480239,0.008789,-0.872097,
1.062,-0.921903,0.044679,-0.361583,-0.480727,0.009278,-0.876491,
0.000,-0.921903,0.049074,-0.362560,-0.484390,0.008545,-0.876003,
0.942,-0.921903,0.049074,-0.362560,-0.484390,0.008545,-0.876003,
1.018,-0.921903,0.047853,-0.358653,-0.482192,0.012452,-0.872341,
0.000,-0.921903,0.045412,-0.355235,-0.480483,0.000000,-0.869655,
0.989,-0.909207,0.045412,-0.355235,-0.484390,0.012696,-0.869655,
1.011,0.000000,0.046388,-0.356456,-0.484390,0.007324,-0.869411,
0.000,-0.937528,0.044679,-0.359142,-0.484390,0.008057,-0.872829,
0.989,-0.937528,0.044679,-0.359142,-0.484390,0.008057,-0.872829,
1.011,-0.921903,0.044191,-0.001953,-0.481704,0.008789,-0.877468,
0.000,-0.918973,0.044435,-0.360851,-0.475112,0.006592,-0.876735,
0.981,-0.921903,0.044435,-0.356456,-0.475112,0.006592,-0.876735,
1.028,-0.921903,0.044435,-0.359386,-0.484390,0.011231,-0.872829,
0.000,-0.921903,0.044679,-0.358165,-0.477553,0.014161,-0.874294,
0.963,-0.937528,0.043702,-0.359142,-0.477553,0.014161,-0.874294,
1.156,-0.937528,0.043702,-0.359142,-0.484390,0.013672,-0.875271,
0.000,-0.921903,0.043702,-0.366466,-0.480972,0.011719,-0.876247,
0.861,-0.921903,0.045656,-0.369152,-0.484390,0.011719,-0.876247,
1.011,-0.921903,0.045656,-0.369152,-0.484390,0.012452,-0.872585,
0.000,-0.921903,0.047853,-0.364513,-0.484390,0.017090,-0.870632,
0.980,-0.921903,0.046876,-0.002441,-0.481216,0.001465,-0.880886,
0.998,-0.921903,0.046876,-0.361827,-0.480727,0.014893,-0.880886,
1.015,-0.921903,0.047853,-0.359874,-0.484390,0.010498,-0.881374,
0.000,-0.921903,0.050783,-0.358898,-0.480239,0.009522,-0.877224,
1.015,-0.921903,0.062441,-0.358898,-0.468825,0.009522,-0.877224,
0.000,-0.921903,0.046632,-0.362560,-0.477798,0.010987,-0.879177,
0.971,-0.921903,0.031251,-0.365978,-0.477065,0.012207,-0.873073,
1.021,-0.921903,0.042970,-0.365978,-0.484390,0.012207,-0.873073,
0.000,-0.921903,0.041749,-0.361095,-0.484390,0.011231,-0.871852,
0.978,-0.937528,0.040040,-0.357677,-0.484390,0.011231,-0.875759,
1.089,-0.937528,0.040040,-0.357677,-0.484390,0.011231,-0.875759,
0.922,-0.921903,0.042482,-0.362560,-0.484390,0.012940,-0.874294,
0.000,-0.921903,0.044679,-0.363536,-0.479018,0.009766,-0.877468,
0.991,0.002197,0.044679,-0.375011,-0.484390,0.009766,-0.877468,
0.000,-0.921903,0.042482,-0.362804,-0.478286,0.005860,-0.877224,
0.999,-0.921903,0.039552,-0.360362,-0.477798,0.006836,-0.877712,
0.998,-0.921903,0.039552,-0.350597,-0.477798,0.006836,-0.877712,
0.000,-0.921903,0.041993,-0.350597,-0.484390,0.008545,-0.879665,
1.002,-0.937528,0.045900,-0.352550,-0.475844,0.010010,-0.876735,
0.999,-0.937528,0.045900,-0.360118,-0.484390,0.010010,-0.876735,
1.018,-0.937528,0.045900,-0.360118,-0.484390,0.010010,-0.875515,
0.000,-0.937528,0.041993,-0.359386,-0.484390,0.012452,-0.875026,
1.004,-0.906338,0.039552,-0.343821,-0.484390,0.012452,-0.015625,
0.000,-0.906338,0.039552,-0.357188,-0.484390,0.013428,-0.877468,
0.980,-0.921903,0.041749,-0.358409,-0.478286,0.012940,-0.875759,
1.089,-0.921903,0.043947,-0.360362,-0.484390,0.012940,-0.875759,
0.000,-0.921903,0.043947,-0.360362,-0.479507,0.013672,-0.877712,
0.924,-0.921903,0.041749,-0.356456,-0.476333,0.012696,-0.878444,
1.038,-0.921903,0.039552,-0.357677,-0.476333,0.012696,-0.873073,
0.966,-0.921903,0.039552,-0.357677,-0.473159,0.010743,-0.873073,
0.000,-0.921903,0.039552,-0.357677,-0.479751,0.010254,-0.875026,
1.008,0.000000,0.043947,-0.359142,-0.483169,0.010743,-0.879177,
0.000,-0.921903,0.043947,-0.359142,-0.483169,0.010743,-0.879177,
0.992,-0.937528,0.043458,-0.358165,-0.484390,0.011231,-0.880398,
1.014,-0.937528,0.044923,-0.358898,-0.481948,0.013184,-0.878689,
0.000,-0.937528,0.044923,-0.358898,-0.481948,0.013184,-0.878689,
0.986,-0.921903,0.046876,-0.363536,-0.484390,0.014405,-0.879177,
1.010,-0.921903,0.043214,-0.365734,-0.484390,0.015625,-0.880398,
0.000,-0.921903,0.043214,-0.365734,-0.472426,0.015625,-0.880398,
0.990,-0.921903,0.041505,-0.361827,-0.475356,0.010987,-0.876980,
1.009,-0.921903,0.041749,-0.364513,-0.484390,0.010254,-0.872829,
0.000,-0.921903,0.041749,-0.372570,-0.478530,0.010254,-0.872829,
0.991,-0.921903,0.041261,-0.375011,-0.478530,0.014405,-0.874782,
1.008,-0.937528,0.042726,-0.366710,-0.484390,0.012207,-0.881374,
0.000,-0.937528,0.041505,-0.361583,-0.484390,0.012207,-0.885281,
1.075,-0.937528,0.041505,-0.361583,-0.479751,0.011719,-0.881130,
1.009,-0.921903,0.040529,-0.362804,-0.479507,0.011963,-0.879177,
0.000,-0.921903,0.042482,-0.359142,-0.484390,0.011963,-0.879177,
0.992,-0.921903,0.042482,-0.359142,-0.478530,0.011231,-0.876735,
1.008,-0.921903,0.043947,-0.357188,-0.484390,0.009766,-0.876735,
0.000,-0.918241,0.044923,-0.358653,-0.479995,0.009766,-0.876735,
0.991,-0.921903,0.044923,-0.358653,-0.480727,0.010743,-0.004883,
1.008,-0.906338,0.044679,-0.357677,-0.478286,0.011231,-0.879665,
0.000,-0.921903,0.044191,-0.357433,-0.478286,0.011231,-0.890652,
0.993,-0.921903,0.044191,-0.357433,-0.476821,0.011475,-0.881130,
1.090,-0.921903,-0.002197,-0.364269,-0.484390,0.013672,-0.883083,
0.645,-0.921903,0.045167,-0.364025,-0.476821,0.012207,-0.871364,
0.000,-0.921903,0.045167,-0.364025,-0.477553,0.012207,-0.871364,
1.010,-0.921903,0.043458,-0.355235,-0.484390,0.014161,-0.870632,
1.007,-0.921903,0.043702,-0.357921,-0.484390,0.015870,-0.875026,
0.000,-0.921903,0.043702,-0.357921,-0.484390,0.015870,-0.875026,
0.993,-0.937528,0.000000,-0.362804,-0.484390,0.011963,-0.875026,
1.007,-0.937528,0.040529,-0.361827,-0.484390,0.011963,-0.873806,
0.000,0.000000,0.040529,-0.361827,-0.474135,0.011963,-0.873806,
0.993,0.015137,0.042238,-0.364269,-0.476577,0.014649,-0.878689,
1.006,-0.922635,0.040529,-0.365245,-0.484390,0.012940,-0.878689,
0.000,-0.937528,0.040529,-0.365245,-0.480239,0.012940,-0.003662,
0.994,0.000000,0.045656,-0.362560,-0.484390,0.009766,-0.875026,
1.007,-0.921903,0.049074,-0.372814,-0.477553,0.010254,-0.876735,
0.000,-0.921903,0.046876,-0.359630,-0.477553,0.010254,-0.876735,
0.993,0.000000,0.000000,-0.359630,-0.477553,0.011475,-0.877468,
1.007,-0.921903,0.047609,-0.359630,-0.484390,0.012696,-0.874294,
0.000,-0.921903,0.044923,-0.356944,-0.484390,0.012696,-0.874294,
1.002,-0.906338,0.044923,-0.356944,-0.478530,0.012696,-0.875271,
0.999,-0.921903,0.041749,-0.354259,-0.484390,0.000000,-0.875515,
0.000,-0.926786,0.042482,-0.355724,-0.484390,0.010743,-0.875515,
0.992,0.013916,0.042482,-0.355724,-0.484390,0.011231,-0.872585,
1.005,-0.921903,0.041749,-0.359630,-0.484390,0.012452,-0.875759,
0.000,-0.921903,0.042238,-0.361095,-0.476821,0.012452,-0.875759,
0.995,0.000000,0.042238,-0.375011,-0.477798,0.013672,-0.874538,
1.006,-0.921903,0.042726,-0.365734,-0.480239,0.014405,-0.874782,
0.000,-0.921903,0.046144,-0.367687,-0.480239,0.014405,-0.874782,
1.278,-0.921903,0.046144,-0.367687,-0.478530,0.014405,-0.878444,
0.121,-0.921903,0.046876,-0.357188,-0.478042,0.014893,-0.878444,
0.982,-0.921903,0.044435,-0.355235,-0.484390,0.017335,-0.879665,
0.000,-0.921903,0.044435,-0.355235,-0.484390,0.015625,-0.879665,
1.043,-0.920194,0.042238,-0.358898,-0.484390,0.014893,-0.880398,
1.005,-0.921903,0.038575,-0.362071,-0.484390,0.010987,-0.878200,
0.000,-0.921903,0.038575,-0.002686,-0.477798,0.010987,-0.878200,
1.030,-0.921903,0.035157,-0.362071,-0.481704,0.008545,-0.876491,
0.971,-0.921903,0.035157,-0.362071,-0.479263,0.006104,-0.878933,
0.000,-0.921903,0.035157,-0.362071,-0.484390,0.006104,-0.878933,
1.016,-0.937528,0.040284,-0.374767,-0.484390,0.009766,-0.879665,
0.982,-0.937528,0.041993,-0.368908,-0.479507,0.012696,-0.877712,
0.000,-0.937528,0.041993,-0.363536,-0.479507,0.012696,-0.877712,
1.016,-0.921903,0.042482,-0.363536,-0.484390,0.011231,-0.875759,
0.983,-0.921903,0.042726,-0.359142,-0.484390,0.011719,-0.875515,
0.000,-0.937528,0.040284,-0.358409,-0.484390,0.011719,-0.875515,
1.015,-0.937528,0.040284,-0.358409,0.004151,0.014893,-0.877712,
0.986,-0.937528,0.040529,0.013428,-0.468825,0.010987,-0.878444,
1.012,-0.937528,0.043214,-0.356212,-0.479263,0.010987,-0.878444,
0.000,-0.937528,0.043214,-0.356212,-0.484390,0.009766,-0.876491,
0.988,-0.921903,0.039552,-0.354015,-0.477553,0.010987,-0.879177,
0.000,-0.921903,-0.006104,-0.358898,-0.484390,0.010987,-0.883816,
1.011,-0.921903,0.040773,-0.358898,-0.476577,0.011475,-0.880642,
0.989,-0.921903,0.041993,-0.361339,-0.478286,0.013916,-0.876491,
0.000,-0.921903,0.040284,-0.361339,-0.484390,0.013916,-0.876491,
1.012,-0.921903,0.031251,-0.361339,-0.478286,0.012452,-0.874050,
1.109,-0.921903,0.039552,-0.360607,-0.478286,0.011231,-0.878689,
0.000,-0.921903,0.005127,-0.359142,-0.484390,0.000000,-0.878689,
1.436,-0.910672,0.036378,-0.359142,-0.478774,0.011963,-0.882839,
0.697,-0.921903,0.040040,-0.353038,-0.484390,0.012696,-0.879177,
0.602,-0.906338,0.042238,-0.009033,-0.468825,0.012696,-0.879665,
0.000,-0.921903,0.042238,-0.352794,0.005371,0.014893,-0.879665,
1.011,-0.937528,0.039552,0.003662,-0.476333,0.017335,-0.876491,
1.006,-0.937528,0.042726,-0.353526,-0.478530,0.016114,-0.875271,
0.160,-0.937528,0.042726,-0.353526,-0.478530,0.016114,-0.875271,
1.050,-0.937528,0.043214,-0.353038,-0.481460,0.015625,-0.876735,
0.000,-0.937528,0.041749,-0.358898,-0.484390,0.011719,-0.873562,
0.966,-0.937528,0.041749,-0.358898,-0.480483,0.011719,-0.873562,
1.022,-0.921903,0.041993,-0.362560,-0.484390,0.009522,-0.872341,
0.000,-0.921903,0.043214,-0.360851,-0.484390,0.013672,-0.876247,
0.992,0.000000,0.044679,-0.362804,-0.484390,0.000000,-0.876247,
0.975,-0.908231,0.044679,-0.362804,-0.482436,0.015625,-0.882351,
0.000,-0.921903,0.041749,-0.359386,-0.484390,0.013428,-0.877712,
0.999,-0.921903,0.040040,-0.014649,-0.479995,0.013428,-0.877712,
1.000,-0.921903,0.040040,-0.358409,-0.474380,0.008545,-0.873317,
1.001,-0.000061,0.041261,-0.365245,-0.484390,0.005860,-0.877956,
0.000,-0.921903,0.041749,-0.361339,-0.472915,0.005860,-0.877956,
1.007,-0.921903,-0.000061,-0.361339,-0.476821,0.008789,-0.877956,
0.000,-0.921903,0.042238,-0.354015,-0.479995,0.010254,-0.877224,
0.993,-0.921903,0.031251,-0.355724,-0.479995,0.010254,-0.877224,
0.999,-0.921903,0.042970,-0.355724,-0.484390,0.010254,-0.879421,
0.000,-0.921903,0.046815,-0.354503,-0.468825,0.011963,-0.876247,
1.000,-0.921903,0.037110,-0.350841,-0.484390,0.011963,-0.876247,
1.000,0.000000,0.037110,-0.350841,-0.484390,0.000000,-0.875515,
0.000,-0.910184,0.036378,-0.357188,-0.481216,0.012940,-0.876491,
1.001,0.000000,0.040040,-0.364513,-0.484390,0.012940,-0.876491,
0.999,-0.921903,0.040040,-0.364513,-0.484390,0.011719,-0.875759,
0.000,-0.921903,0.044435,-0.367199,0.010498,0.010010,-0.875515,
1.518,-0.921903,0.046144,-0.362560,-0.473891,0.010010,-0.874050,
0.000,-0.921903,0.046144,-0.362560,-0.484390,0.010987,-0.874050,
0.724,-0.921903,0.043458,-0.360118,-0.484390,0.013428,-0.881618,
1.041,-0.921903,0.041261,-0.359630,-0.475844,0.012940,-0.880398,
0.000,-0.921903,0.041261,-0.359630,-0.475844,0.012940,-0.880398,
1.234,-0.921903,0.041749,-0.360851,-0.484390,0.009522,-0.873806,
1.013,-0.921903,0.041749,-0.364757,-0.476333,0.011719,-0.873317,
0.000,-0.921903,0.041749,-0.362071,-0.476333,0.011719,-0.873317,
0.986,-0.921903,0.043458,-0.362071,-0.484390,0.012207,-0.877224,
1.009,-0.921903,0.041993,-0.357188,-0.479018,0.011231,-0.878444,
0.000,-0.921903,0.041261,-0.364025,-0.479018,0.011231,-0.878444,
0.991,-0.921903,0.041261,-0.364025,-0.484390,0.012452,-0.882839,
1.009,-0.921903,0.042970,-0.366710,-0.484390,0.014649,-0.879665,
0.000,-0.921903,0.013428,-0.362560,-0.480483,0.014649,-0.879665,
0.998,-0.921903,0.044679,-0.362560,-0.479995,0.016846,-0.872585,
0.993,-0.921903,0.044191,-0.361827,-0.484390,0.014893,-0.877468,
0.000,-0.921903,0.042238,-0.356944,-0.484390,0.014893,-0.877468,
1.000,-0.921903,0.042238,-0.356944,-0.484390,0.011719,-0.880642,
1.008,-0.921903,0.041017,-0.356456,-0.484390,0.009522,-0.878444,
0.000,-0.921903,0.042238,-0.355479,0.008789,0.009522,-0.878444,
0.992,-0.921903,0.042238,-0.011719,-0.476333,0.010743,-0.877468,
1.009,-0.919217,0.042482,-0.355235,-0.484390,0.010987,-0.876735,
0.000,-0.921903,0.040773,-0.356212,-0.484390,0.010987,-0.001709,
0.991,-0.906338,0.040773,-0.356212,-0.479263,0.007569,-0.877224,
1.000,-0.937528,0.042238,-0.357433,-0.479751,0.011475,-0.878200,
0.000,-0.937528,0.043458,-0.363292,-0.479751,0.011475,-0.878200,
1.067,-0.937528,0.043458,-0.363292,-0.481460,0.014649,-0.879665,
0.000,-0.937528,0.043458,-0.361827,-0.479018,0.011231,-0.878444,
1.560,-0.921903,0.043702,-0.355968,-0.479018,0.011231,-0.876735,
0.095,-0.921903,0.043702,-0.355968,-0.484390,0.010987,-0.876735,
1.006,-0.921903,0.042238,-0.360118,-0.479995,0.008301,-0.874782,
0.000,-0.921903,0.040040,-0.362316,-0.479507,0.005615,-0.875759,
0.999,-0.921903,0.040040,-0.362316,-0.484390,0.005615,-0.875759,
0.999,-0.921903,0.041505,-0.361827,-0.484390,0.008301,-0.877712,
1.008,-0.921903,0.045412,-0.364025,-0.478042,0.011231,-0.877712,
0.000,-0.921903,0.044679,-0.364513,-0.478042,0.011231,-0.877712,
0.993,-0.921903,0.044679,-0.364513,-0.481948,0.015137,-0.876980,
0.000,0.000000,0.040773,-0.359874,-0.484390,0.016114,-0.878933,
1.010,-0.937528,0.038575,-0.359874,-0.484390,0.016114,-0.878933,
0.990,-0.937528,0.038575,-0.359874,-0.484390,0.014405,-0.880642,
1.009,-0.921903,0.040529,-0.000732,-0.478042,0.013672,-0.882351,
0.000,-0.922391,0.042970,-0.356456,-0.478042,0.013672,-0.882351,
1.000,-0.937528,0.042970,-0.344249,-0.477798,0.012207,-0.883327,
0.999,-0.937528,0.041261,-0.360118,-0.478774,0.011231,-0.881863,
0.000,-0.921903,0.040773,-0.365734,-0.484390,0.011231,-0.881863,
0.991,-0.921903,0.040773,-0.365734,-0.479995,0.012696,-0.876003,
0.000,-0.921903,0.040529,-0.365734,-0.484390,0.000000,-0.872829,
0.000,-0.908475,0.042726,-0.364025,-0.479751,0.013428,-0.872829,
0.993,-0.921903,0.042726,-0.364025,-0.478530,0.012452,-0.875271,
1.006,-0.921903,0.044435,-0.004151,-0.478042,0.012207,-0.873806,
0.000,-0.937528,0.042726,-0.363048,-0.478042,0.012207,-0.873806,
0.994,-0.937528,0.042726,-0.363048,-0.479995,0.010743,-0.871364,
1.008,-0.921903,0.042726,-0.363536,-0.480972,0.008789,-0.872585,
0.000,-0.921903,0.007813,-0.358898,-0.480972,0.008789,-0.872585,
1.262,-0.921903,0.039064,-0.358898,-0.479507,0.011231,-0.876247,
0.661,-0.921903,0.041993,-0.356700,-0.477309,0.013672,-0.876735,
0.190,-0.921903,0.044435,-0.353282,-0.477309,0.014893,-0.872829,
1.015,-0.921903,0.044435,-0.353282,-0.484390,0.014893,-0.872829,
0.000,-0.921903,0.040284,-0.350352,-0.484390,0.011475,-0.873806,
0.990,-0.919950,0.042970,-0.353282,-0.480239,0.007324,-0.879421,
1.005,-0.921903,0.044191,-0.363292,-0.484390,0.007324,-0.004395,
0.000,-0.919705,0.044191,-0.363292,-0.476577,0.008789,-0.880153,
0.994,-0.921903,0.041017,-0.371349,-0.484390,0.011231,-0.003662,
0.999,-0.921903,0.039552,-0.361583,-0.476333,0.011231,-0.878689,
0.000,-0.921903,0.039552,-0.371105,-0.480239,0.010254,-0.880398,
1.001,-0.921903,0.041993,-0.353282,-0.481216,0.010498,-0.881863,
1.000,-0.921903,0.041017,-0.354991,-0.481216,0.010498,-0.881863,
0.000,-0.921903,0.041017,-0.354991,-0.479018,0.015137,-0.877468,
1.000,-0.937528,0.031251,-0.357433,-0.476821,-0.000732,-0.874294,
1.012,-0.937528,0.042970,-0.354503,-0.477798,0.014893,-0.874294,
0.000,-0.937528,0.031251,-0.354503,-0.472670,0.009522,-0.876247,
0.988,-0.921903,0.043702,-0.351817,-0.475112,0.007324,-0.876735,
1.009,-0.921903,0.043458,-0.353038,-0.484390,0.007324,-0.876735,
0.000,-0.921903,0.043458,-0.353038,-0.484390,0.011719,-0.876247,
0.991,-0.923368,0.045167,-0.356456,-0.480972,0.014161,-0.872097,
1.009,-0.937528,0.045167,-0.345225,-0.484390,0.014161,-0.012696,
0.000,-0.921964,0.045167,-0.356456,-0.476333,0.012207,-0.870632,
0.991,-0.937528,0.045656,-0.357188,-0.473647,0.012452,-0.879665,
1.012,-0.921903,0.042726,-0.361339,-0.484390,0.012452,-0.879665,
0.000,-0.921903,0.011475,-0.361339,-0.484390,0.010743,-0.875759,
0.988,-0.921903,0.042238,-0.361827,-0.473159,0.006592,-0.872585,
1.009,-0.921903,0.044435,-0.356944,-0.473159,0.006592,-0.872585,
0.000,-0.921903,0.044435,-0.356944,-0.484390,0.008545,-0.873806,
1.512,-0.921903,0.044679,-0.354015,-0.484390,0.010987,-0.871852,
0.629,-0.921903,0.046144,-0.359142,-0.484390,0.010987,-0.874782,
0.000,0.000000,0.046144,-0.361339,-0.484390,0.010498,-0.874782,
0.853,-0.921903,0.047121,-0.361339,-0.476577,0.012207,-0.875759,
1.060,-0.922879,0.044435,-0.357921,-0.478530,0.010010,-0.876980,
0.000,-0.921903,0.040529,-0.358409,-0.478530,0.010010,-0.876980,
0.945,-0.921903,0.040529,-0.356212,-0.484390,0.009278,-0.875515,
1.007,-0.921903,0.041993,-0.359142,-0.477553,0.011475,-0.875026,
0.000,-0.921903,0.042726,-0.357921,-0.484390,0.011475,-0.873073,
0.992,-0.921903,0.042726,-0.357921,-0.479263,0.012207,-0.874294,
1.009,-0.921903,0.041993,-0.353526,-0.481216,0.013184,-0.875759,
0.000,-0.921903,0.043947,-0.355235,-0.484390,-0.002441,-0.875759,
0.991,-0.921903,0.043947,-0.355235,-0.484390,0.012696,-0.876491,
1.008,-0.921903,0.045900,-0.357677,-0.479018,0.011719,-0.876003,
0.000,-0.921903,0.046144,-0.357677,-0.479018,0.011719,-0.876003,
0.992,0.000000,0.046144,-0.357677,-0.484390,0.008789,-0.874538,
1.008,-0.921903,0.043214,-0.353770,-0.484390,0.011231,-0.874294,
0.000,-0.921903,0.040773,-0.356944,-0.478042,0.011231,-0.874294,
0.992,-0.921903,0.040773,-0.356456,-0.476821,0.012207,-0.875759,
1.011,-0.921903,0.041749,-0.363048,-0.484390,0.008301,-0.877712,
0.000,-0.921903,0.042970,-0.360118,-0.484390,0.008301,-0.877712,
0.989,-0.921903,0.042970,-0.360118,-0.478530,0.009033,-0.881374,
1.000,-0.921903,0.040529,-0.356944,-0.477553,0.011719,-0.881618,
0.000,-0.921903,0.039064,-0.357677,-0.477553,0.011719,-0.881618,
1.000,-0.921903,0.031251,-0.357677,-0.476089,0.011475,-0.874538,
1.000,-0.921903,0.042482,-0.363048,-0.474135,0.008789,-0.874050,
0.000,-0.937528,0.044435,-0.362071,-0.484390,0.000000,-0.874050,
1.000,-0.928739,0.044435,-0.362071,-0.479507,0.009766,-0.877468,
1.010,-0.921903,0.043214,-0.355235,0.001221,0.010010,-0.875026,
0.000,-0.921903,0.042970,-0.363536,-0.483169,0.010010,-0.871608,
0.996,-0.921903,0.042482,-0.367199,-0.484390,0.010987,-0.871608,
1.180,-0.921903,0.042482,-0.367199,-0.479995,0.013184,-0.872097,
0.052,-0.921903,0.043458,-0.362804,-0.484390,0.009522,-0.877956,
1.003,-0.937528,0.044679,-0.360362,-0.480239,0.009522,-0.877956,
1.015,-0.937528,0.044679,-0.360362,-0.484390,0.006836,-0.883816,
0.000,-0.921903,0.043458,-0.357188,-0.478286,0.009033,-0.881863,
0.986,-0.921903,0.042482,-0.361583,-0.484390,0.009033,-0.881863,
1.009,-0.921903,0.042482,-0.361583,-0.477065,0.009522,-0.882107,
0.000,-0.921903,0.044435,-0.363048,-0.478042,0.010743,-0.885281,
0.991,-0.921903,0.046876,-0.356944,-0.478042,0.010743,-0.885281,
1.007,-0.921903,-0.015625,-0.356944,-0.477309,0.011719,-0.884304,
0.000,-0.921903,0.045412,-0.360851,-0.478774,0.010987,-0.884060,
0.993,-0.937528,0.044191,-0.363780,-0.478774,0.010987,-0.884060,
1.010,-0.937528,0.044191,-0.363780,-0.484390,0.009522,-0.883083,
0.000,-0.921903,0.044435,-0.358409,-0.484390,0.008057,-0.878933,
0.990,-0.921903,0.043947,-0.353526,-0.484390,0.008057,-0.878933,
0.000,-0.921903,0.043947,-0.353526,-0.484390,0.009278,-0.878444,
2.563,-0.921903,0.043458,-0.352306,-0.484390,0.010254,-0.876980,
0.189,-0.921903,0.043947,-0.356944,-0.484390,0.009278,-0.004151,
1.012,-0.920194,0.043947,-0.356944,-0.476333,0.009278,-0.879177,
0.000,-0.921903,0.042970,-0.358409,-0.474868,0.007813,-0.890652,
0.988,-0.921903,0.040529,-0.361583,-0.474868,0.007813,-0.877468,
1.014,-0.921903,0.040529,-0.361583,-0.476333,-0.003662,-0.871852,
0.000,-0.921903,0.039308,-0.361583,-0.477553,0.014405,-0.874538,
0.986,-0.921903,0.042238,-0.356212,-0.484390,0.014405,-0.874538,
1.010,-0.921903,0.042238,-0.356212,-0.476333,0.011231,-0.874782,
0.000,-0.921903,0.043702,-0.353282,-0.484390,0.011963,-0.869899,
0.990,-0.921903,0.040284,-0.355724,-0.478530,0.011963,-0.869899,
1.146,-0.921903,0.040284,-0.355724,-0.484390,0.013184,-0.870388,
0.158,-0.921903,0.039308,-0.355479,-0.478774,0.012452,-0.875026,
1.038,-0.921903,0.040284,-0.355479,-0.484390,0.012452,-0.871364,
0.000,-0.921903,0.040284,-0.371105,-0.477553,0.010498,-0.872341,
0.967,-0.921903,0.043947,-0.362071,-0.484390,0.010010,-0.873317,
1.013,-0.921903,0.046876,-0.359386,-0.483901,0.010010,-0.873317,
0.000,-0.921903,0.047365,-0.355479,-0.484390,0.009278,-0.874050,
0.987,-0.921903,0.047365,-0.355479,-0.484390,0.000000,-0.877712,
1.009,-0.930204,0.047365,-0.361827,-0.484390,0.007324,-0.876491,
0.000,-0.937528,0.045412,-0.359142,-0.480727,0.007324,-0.876491,
0.991,-0.937528,0.045412,0.000244,-0.481460,0.009766,-0.870876,
1.007,-0.937528,0.042970,-0.354015,-0.483413,0.010498,-0.874782,
0.000,-0.937528,0.041993,-0.355968,-0.483413,0.010498,-0.874782,
0.993,-0.937528,0.041993,-0.355968,-0.484390,0.009766,-0.876247,
1.007,-0.937528,0.042726,-0.356700,-0.478530,0.010010,-0.874782,
0.000,-0.937528,0.043702,-0.361339,-0.478530,0.010010,-0.874782,
0.993,-0.937528,0.043702,-0.361339,-0.477553,0.011719,-0.882839,
1.009,-0.937528,0.043458,-0.360607,-0.478774,0.013672,-0.886746,
0.000,0.000000,0.042238,-0.355968,-0.478774,0.013672,-0.886746,
0.991,-0.937528,0.042238,-0.355968,-0.480727,0.010010,-0.881618,
1.009,-0.937528,0.039796,-0.358409,-0.479995,0.009278,-0.879909,
0.000,-0.937528,0.041261,-0.361095,-0.484390,0.009278,-0.879909,
0.990,-0.937528,0.041261,-0.362560,-0.484390,0.009278,-0.880153,
1.009,-0.937528,0.044191,-0.363780,-0.476577,0.006592,-0.878933,
0.000,-0.937528,0.038331,-0.363780,-0.484390,0.006592,-0.878933,
0.995,-0.937528,0.038331,-0.363780,-0.484390,0.008545,-0.875515,
1.005,-0.921903,0.038087,-0.366222,-0.479507,0.010254,-0.875026,
0.000,-0.921903,0.041749,-0.365734,-0.484390,0.010254,-0.875026,
1.381,-0.921903,0.041749,-0.365734,-0.477553,0.009033,-0.876735,
0.000,0.000000,0.038331,-0.364757,-0.484390,0.008789,-0.875759,
1.010,-0.921903,0.039064,-0.365245,-0.484390,0.008789,-0.875759,
1.012,-0.921903,0.042970,-0.363780,0.001465,0.010743,-0.878689,
0.000,-0.921903,0.042970,-0.363780,-0.478530,0.011231,-0.005127,
0.988,-0.921903,0.040773,-0.364513,-0.478530,0.011231,-0.880153,
1.007,-0.937528,0.039064,-0.365490,-0.476577,0.009278,-0.890652,
0.000,-0.937528,0.039064,-0.365490,-0.484390,0.008057,-0.869655,
0.993,-0.937528,0.039796,-0.366466,-0.481704,0.010987,-0.875759,
1.012,-0.921903,0.039064,-0.371349,-0.481460,0.010987,-0.875759,
0.000,-0.921903,0.039064,-0.371349,-0.484390,0.011719,-0.881618,
0.989,-0.921903,0.040040,-0.367687,-0.478286,0.010987,-0.877468,
1.014,-0.921903,0.042726,-0.357433,-0.484390,0.010987,-0.877468,
0.000,-0.921903,0.042726,-0.357433,-0.477309,0.013428,-0.002197,
0.985,-0.921964,0.044435,-0.352550,-0.480483,0.011963,-0.880398,
1.013,-0.937528,0.045656,-0.352794,-0.484390,0.011963,-0.880398,
0.000,-0.937528,0.045656,-0.352794,-0.484390,0.011231,-0.885036,
0.987,-0.937528,0.045412,-0.357677,-0.479751,0.012452,-0.882107,
1.007,-0.921903,0.042726,-0.356456,-0.479751,0.012452,-0.882107,
0.000,-0.921903,0.031251,-0.356456,-0.472915,-0.003906,-0.878689,
0.993,-0.921903,0.044923,-0.357433,-0.484390,0.009522,-0.880153,
0.999,-0.921903,0.031251,-0.358898,-0.470229,0.009522,-0.880153,
0.000,-0.921903,0.045412,-0.358898,-0.475356,0.010743,-0.877224,
1.001,-0.921903,0.044191,-0.351817,-0.484390,0.000000,-0.877712,
1.008,-0.908719,0.046876,-0.352550,-0.480239,0.013184,-0.877712,
0.000,-0.921903,0.046876,-0.352550,-0.500015,0.012696,-0.879665,
0.992,-0.921903,0.043947,-0.358165,-0.484390,0.013184,-0.876003,
1.013,-0.937528,0.042726,-0.357188,-0.480483,0.013184,-0.876003,
0.000,-0.937528,0.042726,-0.358165,-0.476333,0.014649,-0.872341,
0.987,-0.921903,0.042970,-0.358165,-0.475112,0.015381,-0.874782,
1.009,-0.921903,0.043214,-0.359142,-0.475112,0.015381,-0.874782,
0.660,-0.921903,0.046388,-0.359386,-0.475356,0.017579,-0.875271,
0.000,-0.921903,0.046388,-0.359386,-0.474868,0.018555,-0.876735,
0.912,-0.921903,0.044191,-0.359874,-0.474868,0.018555,-0.876735,
1.006,-0.921903,0.040773,-0.354259,0.008545,0.013672,-0.875759,
0.220,-0.921903,0.040773,-0.354259,-0.484390,0.009522,-0.874782,
1.037,-0.921903,0.042970,-0.354991,0.000000,0.009278,-0.878200,
1.007,-0.921903,0.045412,-0.360118,-0.484390,0.009278,-0.878200,
0.000,-0.921903,0.045412,-0.360118,-0.484390,0.011231,-0.878200,
0.987,-0.921903,0.042482,-0.362316,-0.484390,0.013672,-0.002930,
0.000,-0.921903,0.040773,-0.362316,-0.484390,0.013672,-0.877956,
0.989,-0.921903,0.040773,-0.362316,-0.479263,0.014161,-0.875515,
0.992,-0.921903,0.041505,-0.362316,-0.479263,0.010254,-0.872585,
0.000,-0.921903,0.039796,-0.365734,-0.479263,0.010254,-0.872585,
0.993,-0.921903,0.039796,-0.365734,-0.479507,0.009766,-0.875271,
1.000,-0.921903,0.038087,-0.368175,-0.480483,0.011231,-0.882351,
1.009,-0.921903,0.040773,-0.002197,-0.468825,0.011231,-0.882351,
0.000,-0.921903,0.040773,-0.361583,-0.480239,0.010987,-0.880153,
0.990,-0.921903,0.044435,-0.357677,-0.484390,0.011963,-0.002441,
0.000,-0.906338,0.042726,-0.361095,-0.477553,0.011963,-0.877468,
1.015,-0.921903,0.042726,-0.361095,-0.484390,0.011963,-0.876247,
0.995,-0.921903,0.041505,-0.361827,-0.476089,0.011231,-0.875026,
0.000,-0.921903,0.043214,-0.364025,-0.476089,0.011231,-0.875026,
0.990,-0.921903,0.043214,-0.364025,-0.476333,0.009522,-0.874782,
1.000,-0.921903,0.045167,-0.364757,-0.477065,0.010010,-0.869655,
1.002,-0.921903,0.042970,-0.364025,-0.484390,0.010010,-0.869655,
0.000,-0.921903,0.041505,-0.361583,-0.484390,0.013184,-0.870876,
1.020,-0.921903,0.041505,-0.361583,-0.484390,0.012207,-0.875026,
0.988,-0.921903,0.044191,-0.359630,0.007813,0.012207,-0.875026,
0.000,-0.921903,0.043458,-0.361827,-0.484390,0.009278,-0.874538,
1.002,-0.921903,0.043458,-0.361827,-0.478042,0.010498,-0.867458,
0.000,-0.921903,0.044923,-0.355968,-0.478042,0.010498,-0.867458,
1.717,-0.921903,0.045167,-0.361827,-0.477065,0.012207,-0.869899,
0.047,-0.921903,0.013916,-0.361827,-0.474868,0.010743,-0.881374,
1.014,-0.921903,0.042726,-0.366466,-0.474868,0.012452,-0.884060,
0.000,-0.937528,0.042726,-0.361827,-0.473647,-0.003174,-0.884060,
0.990,-0.937528,0.042726,-0.361827,-0.476333,0.011963,-0.882351,
1.000,-0.921903,0.047365,-0.359874,-0.478286,0.008789,-0.879909,
0.000,-0.921903,0.050050,-0.362804,-0.478286,0.008789,-0.879909,
1.000,-0.921903,0.050050,-0.362804,-0.484390,0.010254,-0.878933,
1.010,-0.921903,0.049562,-0.360118,-0.482681,0.011719,-0.879177,
0.000,-0.921903,0.045656,-0.359874,-0.484390,0.011719,-0.879177,
0.990,-0.921903,0.045656,-0.359874,-0.478530,0.012452,-0.890652,
1.010,-0.921903,0.040773,-0.359874,-0.484390,0.013916,-0.877712,
0.000,-0.921903,0.041749,-0.354259,-0.477065,0.013916,-0.877712,
0.991,-0.921903,0.041749,-0.354259,-0.484390,0.013916,-0.882351,
1.009,-0.937528,0.043458,-0.357677,-0.484390,0.009766,-0.884792,
0.000,-0.937528,0.044679,-0.359386,-0.484390,0.009766,-0.884792,
0.990,-0.937528,0.044679,-0.359386,-0.484390,0.009766,-0.882351,
1.012,-0.937528,0.041505,-0.359386,-0.482681,0.012207,-0.881130,
0.000,0.000000,0.041017,-0.357433,-0.484390,0.012207,-0.881130,
0.989,-0.937528,0.041261,0.015381,-0.478042,0.011719,-0.877956,
1.009,-0.920682,0.041261,-0.359630,-0.484390,0.010743,-0.876491,
0.000,-0.937528,0.040529,-0.362316,-0.478042,0.010743,-0.001465,
0.990,-0.921903,0.039552,-0.360607,-0.480239,0.012452,-0.876735,
1.008,-0.921903,0.039552,-0.360607,-0.479018,0.013184,-0.877712,
0.000,-0.921903,0.038820,-0.363292,-0.484390,0.013184,-0.877712,
1.027,-0.937528,0.040040,-0.363780,-0.479263,0.012696,-0.878933,
0.988,-0.937528,0.040040,-0.363780,-0.477065,0.010498,-0.877956,
0.000,-0.937528,0.040773,-0.361339,-0.484390,-0.005127,-0.877956,
1.393,-0.937528,0.041017,-0.360362,-0.484390,0.009278,-0.883572,
0.000,-0.937528,0.041017,-0.360362,-0.477309,0.010987,-0.888210,
1.009,-0.937528,0.040040,-0.364757,-0.484390,0.009278,-0.883083,
1.006,-0.937528,0.041749,-0.365978,-0.484390,0.000000,-0.883083,
0.000,-0.928251,0.041749,-0.365978,-0.484390,0.008545,-0.878444,
0.994,-0.937528,0.042482,-0.365734,-0.484390,0.009522,-0.876980,
1.006,-0.937528,0.042726,-0.367443,-0.484390,0.009522,-0.876980,
0.000,-0.937528,0.042726,-0.367443,-0.484390,0.012452,-0.874050,
0.994,-0.937528,0.042726,-0.367199,-0.475600,0.013916,-0.002197,
1.010,-0.937528,0.041749,-0.361583,-0.475600,0.013916,-0.877224,
0.000,-0.937528,0.041749,-0.361583,-0.479751,0.011719,-0.879909,
0.990,-0.937528,0.042726,-0.356456,-0.479018,0.010254,-0.877224,
0.999,-0.937528,-0.002686,-0.356944,-0.479018,0.010254,-0.877224,
0.000,-0.937528,0.044191,-0.356944,-0.481704,0.009278,-0.874050,
1.001,-0.921903,0.043947,-0.359142,-0.484390,0.010498,-0.870388,
1.007,-0.921903,0.041505,-0.356212,-0.484390,0.010498,-0.870388,
0.000,-0.921903,0.041505,-0.356212,-0.484390,0.011231,-0.873562,
0.995,-0.921903,0.043458,-0.354747,-0.484390,0.013428,-0.874782,
1.004,-0.921903,0.046388,-0.357921,-0.484390,0.013428,-0.874782,
0.000,-0.921903,0.045167,-0.354503,-0.484390,0.014405,-0.879909,
0.994,-0.921903,0.045167,-0.354503,0.010498,0.009522,-0.875271,
1.011,-0.906277,0.045412,-0.351085,-0.473891,0.009522,-0.875271,
0.000,-0.906277,0.044679,-0.352306,-0.484390,0.009278,-0.862575,
0.989,-0.906277,0.044679,-0.352306,-0.470961,0.013428,-0.875026,
1.005,-0.906277,0.043702,-0.355235,-0.470961,0.013428,-0.865016,
0.000,-0.906277,0.042726,-0.358165,-0.471938,0.012452,-0.866970,
0.995,-0.906277,0.042726,-0.358165,-0.473647,0.011231,-0.863551,
1.012,-0.906277,0.040040,-0.359142,-0.473647,0.000000,-0.863551,
0.000,-0.879421,0.041749,-0.357188,-0.472915,0.014893,-0.859889,
0.988,-0.890652,0.041749,-0.357188,-0.484390,0.015870,-0.860622,
1.185,-0.890652,0.046388,-0.012452,-0.469252,0.011963,-0.855250,
0.603,-0.890652,0.045900,-0.352794,-0.465346,0.011963,-0.855250,
0.000,-0.890652,0.045900,-0.344005,-0.462905,0.006836,-0.848658,
1.041,-0.875026,0.045167,-0.356212,-0.468764,0.004883,-0.844264,
0.000,-0.859401,0.045656,-0.356944,-0.460707,0.004883,-0.844264,
0.980,-0.859401,0.045656,-0.356944,-0.458754,0.010498,-0.833765,
0.984,-0.859401,0.045656,-0.356944,-0.454848,0.014649,-0.827906,
0.000,-0.859401,0.052248,-0.346202,-0.454848,0.014649,-0.827906,
1.025,-0.859401,0.052248,-0.346202,-0.468764,0.000000,-0.825464,
0.975,-0.862087,0.054445,-0.335215,-0.452650,0.011475,-0.819849,
0.000,-0.875026,0.053224,-0.322275,-0.453139,0.011475,-0.819849,
1.024,-0.875026,0.053224,-0.322275,-0.454848,0.009033,-0.820337,
0.999,-0.890652,0.056886,-0.312265,-0.461928,0.006348,-0.831568,
0.000,-0.906277,0.056642,-0.303964,-0.468764,0.006348,-0.831568,
1.002,-0.906277,0.056642,-0.301279,-0.468764,0.005371,-0.843531,
0.983,-0.921903,0.051271,-0.301279,-0.476821,0.007324,-0.859889,
0.000,-0.937528,0.049562,-0.306406,-0.476821,0.007324,-0.859889,
0.999,-0.953154,0.047609,-0.305673,-0.479751,0.008057,-0.878444,
1.004,-0.953154,0.047609,-0.305673,-0.480483,0.007324,-0.891140,
0.000,-0.953154,0.047609,-0.305673,-0.480483,0.007324,-0.891140,
0.997,-0.968779,0.042238,-0.329356,-0.484390,0.008301,-0.897976,
0.998,-0.968779,0.042238,-0.329356,-0.500015,0.009033,-0.911160,
0.000,-0.968779,0.042238,-0.329356,-0.491470,0.009033,-0.911160,
1.002,-0.978057,0.037599,-0.348643,-0.498550,0.010254,-0.919705,
0.999,-0.984405,0.037599,-0.353038,-0.501236,0.006836,-0.915555,
0.000,-0.984405,0.039552,-0.370617,-0.501236,0.006836,-0.915555,
1.001,-1.000030,0.041505,-0.393322,-0.502212,0.009033,-0.922879,
0.991,-1.000030,0.041505,-0.393322,-0.507095,0.014161,-0.927762,
2.000,-0.991973,0.041749,-0.440443,-0.515641,0.007813,-0.936308,
0.000,-1.000030,0.041749,-0.440443,-0.509049,0.004395,-0.924833,
1.000,-1.000030,0.039796,-0.448744,-0.515641,0.004395,-0.924833,
1.017,-1.000030,0.039796,-0.448744,-0.502945,0.007813,-0.928007,
0.000,-0.984405,0.035646,-0.006104,-0.497085,0.010743,-0.932157,
1.491,-0.984405,0.026856,-0.467055,-0.497085,0.010743,-0.932157,
0.000,-0.984405,0.026856,-0.467055,-0.494888,0.006592,-0.933866,
1.009,-0.984405,0.018555,-0.470717,-0.490005,0.007569,-0.931425,
0.999,-0.968779,0.013916,-0.469741,-0.490005,0.007569,-0.931425,
0.000,-0.968779,0.013916,-0.469741,-0.485366,0.014405,-0.930936,
1.001,-0.968779,0.010254,-0.469497,-0.486343,0.018555,-0.931180,
1.019,-0.968779,0.007080,-0.459731,-0.500015,0.018555,-0.931180,
0.461,-0.968779,0.007080,-0.439955,-0.488296,0.019532,-0.923612,
1.018,-0.968779,0.003662,-0.439955,-0.487564,0.018799,-0.917508,
0.000,-0.968779,0.003418,-0.431898,-0.487564,0.018799,-0.917508,
1.004,-0.953154,0.003174,-0.431410,-0.485855,0.021729,-0.920194,
0.000,-0.953154,0.003174,-0.431410,-0.489273,0.020508,-0.924100,
0.998,-0.937528,0.006348,-0.415784,-0.500015,0.020508,-0.924100,
1.004,-0.937528,0.016602,-0.388684,-0.488784,0.022217,-0.922635,
0.993,-0.937528,0.016602,-0.388684,-0.484390,0.028565,-0.914334,
0.000,-0.937528,0.030518,-0.361095,-0.484390,0.028565,-0.914334,
0.983,-0.937528,0.039796,-0.336680,-0.484390,0.029786,-0.904324,
0.000,-0.937528,0.039796,-0.336680,-0.484390,0.024171,-0.891140,
1.000,-0.937528,0.039796,-0.336680,0.010498,0.024171,-0.891140,
0.999,-0.906277,0.055177,-0.299081,-0.484390,0.018067,-0.875515,
0.000,-0.906277,0.055177,-0.299081,-0.484390,0.013184,-0.860133,
1.008,-0.906277,0.067629,-0.281991,-0.474135,0.013184,-0.844508,
0.993,-0.906277,0.076174,-0.273934,-0.469252,0.010010,-0.848414,
0.000,-0.906277,0.076174,-0.273934,-0.470229,0.009766,-0.843531,
1.007,-0.906277,0.076174,-0.273934,-0.484390,0.007324,-0.833277,
0.994,-0.890652,0.082522,-0.273202,-0.471450,0.000000,-0.833277,
0.000,-0.883327,0.082522,-0.273202,-0.474624,-0.000244,-0.824244,
1.524,0.000000,0.084719,-0.268563,-0.471450,-0.005615,-0.817896,
0.089,-0.890652,0.087161,-0.266610,-0.484390,-0.005615,-0.817896,
0.990,0.000000,0.087161,-0.266610,-0.484390,-0.015625,-0.814722,
1.017,-0.868679,0.087405,-0.277840,-0.475844,-0.012696,-0.825709,
0.000,-0.890652,0.083743,-0.289071,-0.007080,-0.012696,-0.825709,
1.006,-0.890652,0.083743,-0.289071,-0.479018,-0.013428,-0.004883,
0.000,-0.859462,0.082278,-0.297128,-0.480483,-0.011475,-0.831080,
0.980,-0.875026,0.083499,-0.304697,-0.480483,-0.011475,-0.831080,
1.000,-0.890652,0.078860,-0.310556,-0.480239,-0.005615,-0.826441,
1.008,-0.890652,0.078860,-0.310556,-0.484390,-0.001709,-0.820337,
0.000,-0.890652,0.076907,-0.319101,-0.478042,-0.001709,-0.820337,
0.993,-0.906277,0.073244,-0.329600,-0.477798,0.000000,-0.825709,
1.009,-0.906277,0.073244,0.014161,-0.474135,0.002441,-0.835474,
0.000,-0.906277,0.066897,-0.343272,-0.474135,0.002441,-0.835474,
0.991,-0.906277,0.062746,-0.354503,-0.472915,0.004639,-0.842799,
0.000,-0.906277,0.062746,-0.354503,-0.484390,0.005371,-0.840357,
1.021,-0.906277,0.054689,-0.365978,-0.472426,0.005371,-0.840357,
0.996,-0.921903,0.045656,-0.374035,-0.460463,0.014893,-0.836939,
0.000,-0.921903,0.045656,-0.374035,-0.453383,0.021485,-0.845973,
0.982,-0.906277,0.035890,-0.383312,-0.468764,0.021485,-0.845973,
1.000,-0.906277,0.021973,-0.397717,-0.468764,0.015625,-0.861598,
1.000,-0.906277,0.021973,-0.397717,-0.464858,0.020508,-0.874782,
0.000,-0.906277,0.010254,-0.399914,-0.464858,0.036134,-0.879421,
1.000,-0.906277,0.003906,-0.396740,-0.465346,0.034913,0.011231,
1.007,-0.906277,0.003906,-0.403577,-0.461928,0.037110,-0.885036,
0.000,-0.906277,-0.004639,-0.406751,-0.454115,0.025391,-0.885281,
0.993,-0.906277,-0.012940,-0.417249,-0.468764,0.025391,-0.885281,
0.000,-0.906277,-0.012940,-0.417249,-0.446547,0.021485,-0.890652,
1.000,-0.906277,-0.014649,-0.409680,-0.439466,0.024171,-0.884060,
1.000,-0.906277,-0.018311,-0.404065,-0.439466,0.024171,-0.884060,
0.000,-0.906277,-0.018311,-0.404065,-0.438978,0.023194,-0.882595,
1.000,-0.906277,-0.018555,-0.397229,-0.453139,0.027345,-0.880398,
1.001,-0.906277,-0.009522,-0.383312,-0.441908,0.027345,-0.880398,
0.000,-0.906277,-0.002930,-0.378674,-0.453139,0.024659,-0.886257,
1.002,-0.921903,-0.002930,-0.003662,-0.460707,0.021973,-0.890652,
1.005,-0.921903,-0.002930,-0.378674,-0.468764,0.021973,-0.890652,
0.000,-0.906277,0.010987,-0.374523,-0.468520,0.019532,-0.889431,
1.015,-0.906277,0.010987,-0.364757,-0.468764,0.018799,-0.892117,
0.985,-0.921903,0.022950,-0.355479,-0.468276,0.018799,-0.892117,
0.000,-0.921903,0.034669,-0.347911,-0.484390,0.012696,-0.883327,
1.000,-0.921903,0.034669,-0.347911,-0.472670,0.009033,-0.883083,
1.000,-0.921903,0.047609,-0.343028,-0.472670,0.009033,-0.883083,
0.000,-0.921903,0.047609,-0.343028,-0.484390,0.008057,-0.870143,
1.000,-0.921903,0.047609,-0.343028,-0.484390,0.005615,-0.860866,
1.001,-0.937528,0.067141,-0.326426,-0.484390,0.005615,-0.860866,
0.000,-0.937528,0.070803,0.003906,-0.482925,0.008301,-0.867702,
1.376,-0.937528,0.070803,-0.324229,-0.487808,0.006592,-0.867946,
0.000,-0.953154,0.081057,-0.325693,-0.500015,0.006592,-0.867946,
1.030,-0.953154,0.085940,-0.327647,-0.500015,0.005615,-0.869411,
0.974,-0.953154,0.085940,-0.327647,-0.500015,0.005371,-0.873806,
0.000,-0.953154,0.087649,-0.331797,-0.499527,0.005371,-0.885525,
1.020,-0.953154,0.089846,-0.333018,-0.504410,0.007324,-0.885525,
0.982,-0.953154,0.089846,-0.333018,-0.511734,0.005860,-0.891873,
0.000,-0.968779,0.089846,-0.339122,-0.517838,-0.003662,-0.898709,
1.000,-0.968779,0.085452,-0.349376,-0.531266,-0.003662,-0.898709,
0.998,-0.968779,0.085452,-0.349376,-0.521256,-0.009522,-0.901150,
0.000,-0.968779,0.080569,-0.353770,-0.531266,-0.007813,-0.900662,
1.000,-0.968779,0.080813,-0.362316,-0.531266,-0.007813,-0.900662,
1.000,-0.968779,0.080813,-0.380383,-0.515641,-0.008301,-0.897000,
0.000,-0.968779,0.073977,-0.380383,-0.509049,-0.004395,-0.892849,
1.026,-0.968779,0.067629,-0.405530,-0.509049,-0.004395,-0.892849,
0.974,-0.968779,0.061281,-0.413343,-0.510025,0.000977,-0.893337,
0.000,-0.968779,0.061281,-0.413343,-0.502701,0.000000,-0.892605,
1.548,-0.967803,0.051515,-0.406262,-0.502701,0.000977,-0.892605,
0.000,0.000000,0.043702,-0.405042,-0.500015,-0.015625,-0.897488,
1.009,-0.940946,0.043702,-0.405042,-0.515641,-0.004395,-0.910184,
1.013,0.000000,0.035890,-0.407727,-0.515641,-0.004395,-0.910184,
0.000,-0.953154,0.029298,-0.411389,-0.500015,0.000732,-0.917020,
0.988,-0.946806,0.029298,-0.411389,-0.496841,0.006348,-0.918973,
1.000,-0.953154,0.022462,-0.411389,-0.500015,0.006348,-0.918973,
0.000,-0.953154,0.015870,-0.405286,-0.500015,0.014893,-0.915311,
0.999,-0.953154,0.015870,-0.405286,-0.484390,0.033692,-0.000488,
1.009,-0.953154,0.006348,-0.393811,-0.484390,0.033692,-0.906766,
0.000,-0.937528,0.001953,-0.389904,-0.468764,0.061769,0.013672,
0.991,-0.921964,0.001953,-0.385754,-0.454604,0.052980,-0.887234,
1.005,-0.937528,0.005127,-0.378918,-0.454604,0.052980,-0.887234,
0.000,-0.937528,0.003174,-0.364757,-0.468764,0.018799,-0.897976,
0.995,-0.937528,0.003174,-0.364757,-0.462172,0.011719,-0.903348,
1.006,-0.937528,0.003418,-0.354503,-0.468764,0.011719,-0.903348,
0.000,-0.937528,0.000000,-0.350352,-0.461440,0.021485,-0.898465,
0.994,-0.937528,0.007324,-0.350352,-0.468764,0.029298,-0.891140,
1.012,-0.921903,0.012207,-0.344737,-0.453139,0.032228,-0.882351,
0.000,-0.906277,0.015625,-0.336192,-0.453139,0.032228,-0.882351,
0.988,-0.906277,0.015625,-0.336192,-0.468764,0.028565,-0.877468,
1.015,-0.906277,0.020264,-0.327402,-0.468764,0.019532,-0.877468,
0.000,-0.906277,0.029054,-0.323252,-0.468764,0.019532,-0.877468,
0.985,-0.906277,0.029054,-0.318613,-0.467543,0.015137,-0.867946,
1.018,-0.890652,0.035157,-0.318613,-0.468764,0.012696,-0.846461,
0.000,-0.890652,0.043458,-0.311777,-0.468764,0.012696,-0.846461,
0.982,-0.890652,0.053224,-0.312265,-0.458266,0.010743,-0.832300,
1.011,-0.890652,0.053224,-0.312265,-0.468764,0.008545,-0.821558,
0.000,-0.890652,0.065432,-0.315928,-0.468764,0.008545,-0.821558,
0.988,-0.890652,0.081057,-0.320322,-0.468764,0.008301,-0.812280,
1.000,-0.890652,0.081057,-0.320322,-0.465346,0.007324,-0.814234,
0.637,-0.890652,0.086917,-0.324229,-0.468764,0.000000,-0.814234,
0.671,-0.883327,0.085940,-0.335215,-0.472182,0.000732,-0.818140,
0.772,0.000000,0.085940,-0.335215,-0.479751,-0.003906,-0.828150,
0.000,-0.890652,0.088870,-0.349864,-0.479751,-0.003906,-0.828150,
1.006,-0.890652,0.089358,-0.355479,-0.500015,-0.009522,-0.840113,
0.000,-0.890652,0.089358,-0.355479,-0.500015,-0.015625,0.014161,
1.104,-0.875087,0.088137,-0.358653,-0.491958,-0.015625,-0.845240,
0.895,-0.890652,0.088137,-0.358653,-0.500015,-0.016358,-0.845484,
0.000,-0.890652,0.010010,-0.358653,-0.500015,-0.010743,-0.845729,
1.010,-0.890652,0.082034,-0.361583,-0.488540,-0.010743,-0.845729,
0.991,-0.906277,0.077883,-0.366222,-0.484390,-0.007569,-0.840113,
0.000,-0.906277,0.077883,-0.366222,-0.484390,-0.001953,-0.843043,
1.008,-0.906277,0.068850,-0.372082,-0.484390,-0.001953,-0.843043,
0.992,-0.906277,0.055422,-0.375255,-0.484390,0.004639,-0.851344,
0.000,-0.906277,0.055422,-0.375255,-0.472670,0.008545,-0.855739,
1.007,-0.921903,0.044435,-0.381847,-0.484390,0.013428,-0.865260,
1.003,-0.921903,0.035890,-0.381115,-0.484390,0.013428,-0.865260,
0.000,0.000000,0.035890,-0.381115,-0.484390,0.026856,-0.874538,
0.997,-0.921903,0.027833,-0.373058,-0.464858,0.040773,-0.877468,
0.993,-0.937528,0.021973,-0.374767,-0.011719,0.040773,-0.877468,
0.000,-0.937528,0.021973,0.001465,-0.468825,0.030763,-0.890164,
1.010,-0.937528,0.016114,-0.373546,-0.007324,0.018067,-0.907254,
0.991,-0.937528,0.011963,-0.372326,-0.484390,0.018067,-0.907254,
0.000,-0.937528,0.009766,-0.377453,-0.478042,0.021241,-0.918241,
1.010,-0.937528,0.009766,-0.377453,-0.484390,0.033448,-0.915799,
0.989,-0.937528,0.005860,-0.375011,-0.473403,0.033448,-0.915799,
0.000,-0.953154,0.004151,-0.370128,-0.466079,0.029542,-0.900174,
1.010,-0.953154,0.004151,-0.370128,-0.468764,0.016602,-0.900906,
0.999,-0.953154,0.000000,-0.375255,-0.463637,0.016602,-0.900906,
0.000,-0.953154,0.008789,-0.371837,-0.468764,0.021729,-0.905545,
0.999,-0.953154,0.008789,-0.371837,-0.484390,0.027345,-0.913113,
1.210,-0.953154,0.011231,-0.015137,-0.470473,0.027345,-0.913113,
0.682,-0.953154,0.014161,-0.353282,-0.472915,0.027589,-0.920438,
0.174,-0.953154,0.014161,-0.353282,-0.480483,0.021241,-0.918241,
1.014,-0.953154,0.018311,-0.347423,-0.484390,0.021241,-0.918241,
0.000,-0.953154,0.020020,-0.350352,-0.480239,0.014405,-0.917752,
0.990,-0.953154,0.020020,-0.350352,-0.478286,0.017335,-0.914578,
1.009,-0.953154,0.022217,-0.368908,-0.478286,-0.013916,-0.914578,
0.000,-0.953154,0.026124,-0.374523,-0.484878,0.009033,-0.915555,
0.991,-0.953154,0.015625,-0.374523,-0.489517,0.000000,-0.910672,
1.001,-0.953154,0.036378,-0.368908,-0.500015,0.000000,-0.910672,
0.000,-0.953154,0.052492,-0.365978,-0.490737,0.000000,-0.895047,
0.998,-0.949003,0.052492,-0.365978,-0.500015,0.010743,-0.887966,
1.011,0.000000,0.059572,-0.361583,-0.496597,0.010743,-0.879665,
0.000,-0.937528,0.062746,0.014405,-0.484451,0.010743,-0.879665,
0.991,-0.937528,0.062746,-0.360607,0.007569,0.007324,-0.874782,
0.999,-0.937528,0.068606,0.014161,-0.500015,0.008301,-0.873073,
0.000,-0.934354,0.076907,-0.358653,-0.490493,0.008301,-0.873073,
1.000,-0.937528,0.080813,-0.371837,-0.490493,0.006836,-0.859645,
1.007,-0.937528,0.080813,-0.360362,-0.500015,0.004883,-0.852321,
0.000,-0.937528,0.080813,-0.360362,-0.491470,0.004883,-0.859401,
0.993,-0.937528,0.078616,-0.371593,-0.491470,0.003418,-0.856959,
1.009,-0.937528,0.078616,-0.371593,-0.500015,0.002686,-0.865749,
0.000,-0.937528,0.077151,-0.371837,-0.492202,0.002686,-0.865749,
0.991,-0.937528,0.078616,-0.372082,-0.500015,0.000000,-0.866725,
1.009,-0.936063,0.078616,-0.372082,-0.500015,-0.002441,-0.864772,
0.000,-0.937528,0.073244,-0.375500,-0.500015,-0.002441,-0.864772,
0.991,-0.937528,0.063234,-0.377453,-0.493179,-0.002686,-0.872097,
1.001,-0.937528,0.063234,-0.377453,-0.490982,-0.000488,-0.879909,
0.000,-0.937528,0.054445,-0.381359,-0.490982,-0.000488,-0.879909,
0.999,-0.921903,0.046144,-0.378674,-0.487564,0.000244,-0.885281,
1.000,-0.921903,0.046144,-0.378674,-0.484145,0.002441,-0.885036,
0.000,-0.921903,0.039308,-0.374767,-0.484390,0.002441,-0.885036,
1.010,-0.921903,0.031251,-0.368419,-0.479995,0.007813,-0.886501,
0.990,-0.921903,0.035646,-0.368419,-0.475112,0.016846,-0.882107,
0.000,0.000000,0.027100,-0.365001,-0.484390,0.016846,-0.882107,
1.000,-0.921903,0.023682,-0.362560,-0.465102,0.024903,-0.871608,
1.008,-0.912137,0.023682,-0.362560,0.000000,0.032472,-0.870388,
0.000,-0.921903,0.021973,-0.361095,-0.456068,0.032472,0.004639,
0.992,-0.921903,0.015625,-0.362071,-0.468764,0.030763,-0.879177,
1.000,-0.921903,0.015625,-0.365245,-0.468764,0.016358,0.001221,
0.000,-0.906277,0.018067,-0.359386,-0.468764,0.016358,-0.889431,
1.015,-0.906277,0.018067,-0.350841,-0.468764,0.015381,-0.888943,
0.984,-0.906277,0.018067,-0.355724,-0.455336,0.019532,-0.879177,
0.000,-0.906277,-0.001709,-0.350352,-0.455336,0.020753,-0.874294,
1.000,-0.906277,0.015870,-0.343760,-0.468764,0.020753,-0.874294,
1.000,-0.906277,0.018799,-0.339122,-0.454359,0.010987,-0.873562,
0.000,-0.906277,0.018799,-0.339122,-0.468764,0.027345,-0.877712,
1.000,-0.906277,0.015625,-0.334971,-0.464369,0.027345,-0.877712,
1.001,-0.906277,0.025880,-0.328867,-0.464125,0.026368,-0.877224,
0.000,0.000000,0.025880,-0.328867,-0.468764,0.015625,-0.863551,
1.001,-0.902371,0.025880,-0.328867,-0.468764,0.019532,-0.863551,
0.999,-0.921903,0.034913,-0.333262,-0.468764,0.011719,-0.864040,
0.000,-0.921903,0.034913,-0.333262,-0.469008,0.012207,-0.866725,
1.000,-0.906277,0.040529,-0.333994,-0.469008,0.012207,-0.866725,
1.000,-0.906277,0.048341,-0.339122,-0.467788,0.011231,-0.860133,
0.000,-0.906277,0.048341,-0.334971,-0.470473,0.010498,-0.853053,
1.000,-0.921903,0.011231,-0.337901,-0.470473,0.010498,-0.853053,
1.000,-0.906277,0.063478,-0.341319,-0.478286,0.007080,-0.845240,
0.000,-0.906277,0.063478,-0.341319,-0.480972,-0.000244,-0.838648,
1.000,-0.906277,0.067629,-0.348887,-0.480972,-0.000244,-0.838648,
1.000,-0.921903,0.072512,-0.357433,-0.484390,-0.000244,-0.842311,
0.000,-0.921903,0.072512,-0.357433,-0.500015,-0.001953,-0.846217,
1.000,0.000000,0.076418,-0.363780,-0.500015,-0.001953,-0.846217,
0.999,-0.906277,0.077395,-0.365490,-0.500015,-0.005860,-0.842311,
0.000,-0.906277,0.077395,-0.365490,-0.486587,-0.006104,-0.848658,
1.001,-0.921903,0.076907,-0.365490,-0.500015,-0.006104,-0.848658,
1.001,-0.921903,0.072756,-0.370617,-0.489761,-0.003662,-0.849391,
0.000,-0.921903,0.072756,-0.370617,-0.500015,-0.000488,-0.854518,
0.999,-0.921903,0.067873,-0.379162,-0.491714,-0.000488,-0.870143,
1.000,-0.921903,0.061281,-0.377209,-0.489273,-0.000977,-0.864772,
0.000,-0.921903,0.048585,-0.369396,-0.500015,0.004395,-0.870388,
1.000,-0.921903,0.048585,-0.369396,-0.484390,0.009522,-0.878933,
1.034,-0.937528,0.040040,-0.373302,-0.484390,0.009522,-0.878933,
0.000,-0.937528,0.037110,-0.371593,-0.484390,0.013428,-0.880398,
0.967,-0.937528,0.037110,-0.371593,-0.473403,0.017579,-0.890652,
0.999,-0.937528,0.028321,-0.366466,-0.473403,0.017579,-0.877468,
0.000,-0.937528,0.020753,-0.365734,-0.484390,0.022462,-0.882839,
1.000,-0.937528,0.020753,-0.365734,-0.469008,0.022950,-0.898709,
1.000,-0.937528,0.015625,-0.362071,-0.469008,0.022950,-0.898709,
0.000,-0.953154,0.017090,-0.358898,-0.484390,0.020753,-0.914334,
1.000,-0.953154,0.017090,-0.358898,-0.484390,0.022950,-0.917020,
1.011,-0.937528,0.014405,-0.358898,-0.484390,0.022950,-0.917020,
0.000,-0.937528,0.012696,-0.363292,-0.473891,0.024171,-0.910916,
1.466,-0.937528,0.012696,-0.363292,-0.484390,0.024415,-0.014161,
0.669,-0.937528,0.017579,-0.364269,-0.484390,0.024415,-0.904812,
0.200,-0.937528,0.024171,-0.361095,-0.472670,0.023438,-0.906277,
1.013,-0.937528,0.024171,-0.361095,-0.476089,0.019532,-0.904080,
0.000,-0.937528,0.025147,-0.359142,-0.476089,0.019532,-0.904080,
0.991,-0.937528,0.024659,-0.362560,-0.478042,0.017823,-0.904324,
1.000,-0.937528,0.024659,-0.362560,-0.484390,0.016602,-0.909207,
0.000,-0.953154,0.026612,-0.369640,-0.484390,0.016602,-0.909207,
1.002,-0.953154,0.029786,-0.374279,-0.480727,0.013916,-0.892605,
0.997,-0.953154,0.029786,-0.014893,-0.484390,0.013428,-0.888699,
0.000,-0.934110,0.031495,-0.378918,-0.479507,0.013428,-0.888699,
1.001,-0.937528,0.035157,-0.384045,-0.483413,0.012207,-0.897488,
1.010,-0.937528,0.035157,-0.383068,-0.487808,0.009522,-0.887966,
0.000,-0.937528,-0.007324,-0.383068,-0.487808,0.009522,-0.883327,
0.991,-0.937528,0.043702,-0.382092,-0.487808,0.007324,-0.883327,
1.008,-0.937528,0.046876,-0.379650,-0.486587,0.006592,-0.885281,
0.000,-0.937528,0.050050,-0.379650,-0.500015,0.006104,-0.878933,
0.991,-0.937528,0.055177,-0.375255,-0.490737,0.006104,-0.878933,
1.000,-0.937528,0.060060,0.010254,-0.484451,0.006104,-0.874782,
1.000,-0.937528,0.060060,-0.380383,0.000000,0.001709,-0.863307,
0.000,-0.937528,0.066897,-0.383801,-0.492691,0.001709,-0.863307,
0.999,-0.937528,0.069582,-0.372082,-0.500015,0.004883,-0.853541,
1.001,-0.937528,0.069582,-0.372082,-0.484390,0.008789,-0.858668,
0.000,-0.937528,0.067385,-0.362560,-0.480727,0.008789,-0.858668,
1.010,-0.937528,0.067141,-0.355968,-0.484390,-0.010498,-0.858913,
0.000,-0.937528,0.067141,-0.355968,-0.500015,0.002197,-0.859645,
0.990,-0.937528,0.067141,-0.355968,-0.486587,0.002197,-0.859645,
0.999,-0.937528,0.060060,-0.347911,-0.488540,0.000732,-0.870876,
0.000,-0.937528,0.060060,-0.347911,-0.484390,0.002686,-0.872097,
1.001,-0.937528,0.055910,-0.348643,-0.484390,0.002686,-0.872097,
1.159,-0.921903,0.048830,-0.349620,-0.477798,0.006104,-0.863307,
0.040,-0.921903,0.048830,-0.005860,-0.484390,0.008057,-0.870388,
1.005,-0.918241,0.041505,-0.346690,0.008789,0.008057,-0.870388,
1.007,-0.921903,0.036134,-0.339366,-0.471450,0.010987,-0.004883,
0.000,-0.921903,0.036134,-0.339366,-0.468276,0.017335,-0.886257,
0.993,-0.921903,0.032716,-0.337657,-0.468764,0.017335,-0.886257,
0.000,-0.921903,0.029054,-0.337657,-0.470717,0.018311,-0.887722,
1.000,-0.921903,0.029054,-0.337657,-0.467788,0.015137,-0.884792,
0.999,-0.921903,0.024903,-0.338145,-0.467788,0.015137,-0.884792,
1.009,-0.921903,0.022462,-0.341807,-0.463149,0.021729,-0.885281,
0.000,-0.921903,0.023927,-0.346690,-0.468764,0.024171,-0.886257,
0.992,-0.921903,0.023927,-0.346690,-0.006348,0.024171,-0.878933,
0.000,-0.921903,0.025636,-0.005615,-0.460219,0.015625,-0.878933,
1.000,-0.905545,0.030274,-0.356456,-0.468764,0.012696,-0.871608,
0.999,-0.906277,0.030274,-0.356456,-0.466323,0.012207,-0.876003,
0.000,-0.906277,0.037599,-0.364269,-0.468764,0.012207,-0.876003,
1.001,-0.906277,0.039308,-0.367199,-0.466323,0.011231,-0.878933,
0.999,-0.906277,0.039308,-0.367199,-0.466323,0.014161,-0.871364,
1.010,-0.906277,0.031251,-0.365734,-0.460219,0.014161,-0.871364,
0.000,-0.906277,0.042238,-0.364757,-0.465834,0.012696,-0.861354,
0.991,-0.906277,0.042238,-0.364757,-0.468764,0.010254,-0.863307,
1.018,-0.906277,0.048341,-0.366222,-0.468276,0.010254,-0.863307,
0.000,-0.906277,0.047365,-0.368175,0.000000,0.011231,-0.866725,
0.981,-0.906277,0.047365,-0.368175,-0.473647,0.012452,-0.003906,
1.001,-0.906277,0.043702,-0.373058,-0.473647,0.012452,-0.863307,
0.000,-0.906277,0.045412,-0.373791,-0.484390,0.012452,-0.863551,
0.999,-0.906277,0.045412,-0.373791,-0.475844,0.008545,-0.867946,
1.007,-0.906277,0.045900,-0.362560,-0.475844,0.008545,-0.867946,
0.000,-0.921903,0.047609,-0.353526,-0.476577,0.006836,-0.867458,
0.994,-0.921903,0.047609,-0.353526,-0.484390,0.005615,-0.862331,
1.006,-0.921903,0.051759,-0.357433,-0.477553,0.005615,-0.862331,
0.000,-0.921903,0.050050,-0.353770,-0.484390,0.006348,-0.860377,
0.993,-0.921903,0.050050,-0.353770,-0.479018,0.010010,-0.864284,
0.000,-0.921903,0.048097,-0.350108,-0.479018,0.010010,-0.864284,
1.644,-0.921903,0.055422,-0.355968,-0.480483,0.010498,-0.868434,
0.249,-0.921903,0.058107,-0.338877,-0.484390,0.008545,-0.870876,
1.004,-0.921903,0.058107,-0.338877,-0.478530,0.008545,-0.870876,
0.000,-0.937528,0.056154,-0.341563,-0.478774,0.010987,-0.875759,
1.000,-0.937528,0.053713,-0.347667,-0.479995,-0.002441,-0.875271,
1.009,-0.937528,0.053713,-0.347667,-0.479995,0.011963,-0.873073,
0.000,-0.937528,0.051271,-0.347667,-0.480972,0.011963,-0.873073,
0.991,-0.937528,0.048585,-0.345958,-0.484390,0.011963,-0.877712,
0.999,-0.937528,0.048585,-0.345958,-0.012940,0.013184,-0.883572,
0.000,-0.937528,0.044435,0.008301,-0.468825,0.013184,-0.883572,
1.001,-0.927030,0.043214,-0.357677,-0.482925,0.015870,-0.889431,
1.009,-0.937528,0.043214,-0.348887,-0.484390,0.014405,-0.001709,
0.000,-0.921964,-0.898709,0.000000,-0.484390,0.014405,-0.892361,
0.991,-0.937528,0.030763,0.015137,-0.485610,0.009766,-0.894070,
1.000,-0.934843,0.030763,-0.359874,-0.483657,0.012696,-0.894070,
0.000,-0.937528,0.030518,0.010498,-0.483657,0.012696,-0.894070,
1.000,-0.937528,0.032228,-0.370373,-0.486343,0.013672,-0.904324,
1.000,-0.937528,0.032228,-0.370373,-0.484390,0.010987,-0.900418,
0.000,-0.953154,0.029542,-0.378185,-0.482681,0.010987,-0.900418,
1.000,-0.953154,0.031983,-0.382092,-0.477309,0.014161,-0.889431,
1.000,-0.953154,0.031983,-0.382092,-0.478042,0.014161,-0.894558,
0.000,-0.937528,0.031251,-0.378674,-0.478042,0.014161,-0.894558,
1.000,-0.937528,0.033204,-0.381115,-0.477065,0.012452,-0.891628,
1.000,-0.937528,0.033204,-0.381115,-0.484390,0.010743,-0.888210,
0.000,-0.937528,0.035890,-0.385266,-0.479507,0.010743,-0.888210,
1.002,-0.937528,0.039064,-0.384533,-0.484390,0.009522,-0.892849,
1.001,-0.937528,0.039064,-0.384533,-0.478530,0.011963,-0.886990,
0.000,-0.937528,0.041993,-0.385510,-0.478530,0.011963,-0.886990,
1.000,-0.937528,0.045900,-0.381359,-0.481704,-0.000732,-0.881374,
0.998,-0.937528,0.047609,-0.374279,-0.484390,0.015625,-0.886990,
0.000,-0.937528,0.046876,-0.374279,-0.484390,0.015625,-0.886990,
1.648,-0.937528,0.043947,-0.365734,-0.483413,0.013428,-0.887966,
0.090,-0.921903,0.041261,-0.362071,-0.480483,0.011719,-0.886257,
0.000,-0.921903,-0.000061,-0.362071,-0.468825,0.009766,-0.884060,
1.185,-0.921903,0.047853,-0.360851,-0.484390,0.009766,-0.884060,
0.822,-0.937528,0.048341,-0.357433,-0.474868,0.007569,-0.883083,
0.998,-0.937528,0.048341,0.001953,-0.476089,0.006836,-0.872829,
0.000,-0.921903,0.043947,-0.355235,-0.484390,0.006836,-0.872829,
1.000,-0.921903,0.041505,-0.351085,-0.479751,0.005860,-0.868679,
1.010,-0.921903,0.041505,-0.351085,-0.484390,0.006592,-0.869655,
0.000,-0.921903,0.041749,-0.346202,-0.484390,0.006592,-0.869655,
0.990,0.000000,0.045412,-0.345469,-0.484390,0.000000,-0.870143,
1.009,-0.912137,0.014161,-0.359386,-0.479995,0.010254,-0.869167,
0.000,-0.921903,0.048341,-0.343028,-0.479995,0.010254,-0.869167,
0.990,-0.921903,0.048341,-0.014893,-0.484390,0.010254,-0.872097,
1.009,-0.914334,0.048341,-0.343028,-0.474380,0.011963,-0.876735,
0.000,-0.921903,0.050539,-0.340831,-0.474380,0.011963,-0.876735,
0.993,-0.921903,0.051515,-0.339610,-0.484390,0.013428,-0.871852,
1.000,-0.921903,0.051515,-0.339610,-0.476577,0.011963,-0.867702,
0.000,-0.921903,0.054445,-0.346690,-0.484390,0.011963,-0.867702,
0.998,-0.921903,0.053713,-0.348887,-0.484390,0.010743,-0.869899,
1.015,0.000000,0.053713,-0.348887,-0.484390,0.012940,-0.870632,
0.000,-0.921903,0.049562,-0.352061,-0.484390,0.012940,-0.870632,
0.986,-0.921903,0.046632,-0.359142,-0.484390,0.010987,-0.870876,
1.000,-0.921903,0.046632,-0.361827,-0.484390,0.008789,-0.871120,
0.000,-0.921903,0.042970,-0.361827,-0.475844,0.008789,-0.871120,
0.999,-0.921903,0.039552,-0.361583,-0.484390,0.011719,-0.865505,
1.001,-0.921903,0.037843,-0.005615,-0.479751,0.014405,-0.869899,
0.715,-0.921903,0.037843,-0.365001,-0.479751,0.014405,-0.869899,
0.557,-0.921903,0.034425,-0.364513,-0.480727,0.013916,-0.875515,
0.000,-0.921903,0.034669,-0.369152,-0.478530,0.015870,-0.877224,
1.006,-0.921903,0.034669,-0.369152,-0.484390,0.018555,-0.880398,
0.999,-0.921903,0.037110,-0.369640,-0.475600,0.018555,-0.880398,
0.000,-0.921903,0.039308,-0.371105,-0.476089,0.015137,-0.877468,
1.000,-0.921903,0.039308,-0.371105,-0.478286,0.012452,-0.874294,
1.008,-0.921903,0.036622,-0.370861,-0.484390,0.012452,-0.874294,
0.000,-0.921903,0.034669,-0.366954,-0.477553,0.011231,-0.870876,
0.992,-0.921903,0.034669,-0.366954,-0.484390,0.013428,-0.873562,
1.009,-0.921903,0.039308,-0.369640,-0.470961,0.013428,-0.875026,
0.000,-0.921903,0.038331,-0.373058,-0.470473,0.016602,-0.876735,
0.991,-0.921903,0.007080,-0.373058,-0.472670,0.012940,-0.872341,
1.001,-0.921903,0.037599,-0.371349,-0.472670,0.012940,-0.872341,
0.000,-0.921903,0.041749,-0.365734,-0.484390,0.012696,-0.872341,
0.999,-0.921903,0.041749,-0.365734,-0.471694,0.016846,-0.876247,
1.010,-0.921903,0.042482,-0.361339,-0.484390,0.016846,-0.876247,
0.000,-0.921903,0.040284,-0.360362,-0.484390,0.011963,-0.873317,
0.990,-0.921903,0.040284,-0.360362,-0.484390,0.007080,-0.871608,
0.999,-0.921903,0.040529,-0.355235,-0.478774,0.007080,-0.871608,
0.000,-0.921903,0.044191,-0.349864,-0.476089,0.010987,-0.876735,
1.000,-0.921903,0.044191,-0.351085,-0.477553,0.012452,-0.878200,
1.001,-0.921903,0.044679,-0.351085,-0.484390,0.012452,-0.878200,
0.000,-0.921903,0.042970,-0.353038,-0.484390,0.014405,-0.876735,
1.000,-0.921903,0.043214,-0.348643,-0.484390,0.014893,-0.872829,
1.000,-0.921903,0.043214,-0.348643,-0.484390,0.000000,-0.872829,
0.000,0.014893,0.046144,-0.343760,-0.484390,0.010987,-0.869167,
1.000,-0.921903,0.046876,-0.347667,-0.484390,0.008545,-0.871852,
1.008,-0.921903,0.046876,-0.347667,-0.479018,0.008545,-0.871852,
0.000,-0.921903,0.047121,-0.347667,-0.008545,0.008545,-0.873073,
0.996,-0.937528,0.051759,-0.342295,-0.484390,0.010010,-0.871608,
1.005,-0.937528,0.051759,-0.342295,-0.480239,0.013428,-0.873806,
0.340,-0.937528,0.054201,-0.343272,-0.484390,0.013428,-0.873806,
1.105,-0.937528,0.051271,-0.348887,-0.482192,0.015381,-0.879421,
0.000,-0.937528,0.051271,-0.348887,-0.479507,0.013672,-0.885769,
0.900,-0.937528,0.047853,-0.352550,-0.479507,0.013672,-0.885769,
1.009,-0.937528,0.044435,-0.349132,-0.479263,0.000000,-0.882595,
0.000,-0.926053,0.044435,-0.349132,-0.480972,0.010010,-0.880153,
0.990,-0.000061,0.044679,-0.350352,-0.484390,0.010010,-0.880153,
1.008,-0.937528,0.047121,0.004883,-0.468825,0.010498,-0.878444,
0.000,-0.937528,0.047121,-0.354503,-0.480239,0.010987,-0.880398,
0.993,-0.937528,0.045656,-0.358409,-0.484390,0.010987,-0.005371,
1.009,-0.921964,0.043458,-0.365734,-0.483901,0.012452,-0.883327,
0.000,-0.937528,0.043458,-0.365734,-0.477065,0.012696,-0.883327,
0.990,-0.937528,0.041993,-0.366710,-0.477065,0.012696,-0.883327,
1.008,-0.937528,0.041993,-0.367199,-0.474380,0.011475,-0.885525,
0.000,-0.937528,0.041993,-0.367199,-0.484390,0.010743,-0.882595,
0.992,-0.937528,0.040040,-0.370373,-0.484390,0.010743,-0.882595,
1.009,-0.937528,0.039308,-0.376232,-0.484390,0.011475,-0.885281,
0.000,0.000000,0.040284,-0.381603,-0.480727,0.012940,-0.887966,
0.992,-0.937528,0.040284,-0.381603,-0.484390,0.012940,-0.887966,
1.009,-0.927518,0.040529,-0.375988,-0.479263,0.013672,-0.884792,
0.000,-0.937528,0.038575,-0.365490,-0.476089,0.011963,-0.886257,
0.990,-0.937528,0.038575,-0.374279,-0.476089,0.011963,-0.886257,
1.008,-0.937528,0.004151,-0.378185,-0.479995,0.014161,-0.888943,
0.000,-0.937528,0.034669,-0.383801,-0.484390,0.016358,-0.883572,
0.992,-0.937528,0.034669,-0.383801,-0.484390,0.016358,-0.882351,
1.008,-0.937528,0.034669,-0.385021,-0.479995,0.013916,-0.882351,
0.000,-0.937528,0.034425,-0.377941,-0.484390,0.014161,-0.883572,
1.380,-0.937528,0.034425,-0.377941,-0.484390,0.012696,-0.880398,
0.701,-0.937528,0.034181,-0.367931,-0.484390,0.012696,-0.880398,
0.000,-0.937528,0.036622,0.011963,-0.468825,0.012696,-0.883572,
1.306,-0.925565,0.036622,-0.363048,-0.477065,0.013184,-0.883327,
0.000,-0.937528,0.036378,-0.362071,-0.484390,0.013184,-0.883327,
1.009,-0.937528,0.038575,-0.361827,-0.484390,0.009766,-0.877468,
1.007,-0.937528,0.038575,-0.361827,-0.474624,0.010254,-0.877956,
0.000,-0.937528,0.041017,-0.358165,-0.484390,0.010254,-0.877956,
0.993,-0.921903,0.037599,-0.355968,-0.473403,0.013672,-0.877224,
1.000,-0.921903,0.037599,-0.355968,-0.474380,0.015381,-0.874050,
0.000,-0.921903,0.038820,-0.351085,-0.474380,0.015381,-0.874050,
0.999,-0.921903,0.044679,-0.345958,-0.484390,0.016846,-0.872097,
1.009,-0.921903,0.044679,0.013428,0.006104,0.013916,-0.871364,
0.000,-0.921903,0.047365,-0.345958,-0.484390,0.013916,-0.871364,
0.991,-0.921903,0.048097,-0.343028,-0.484390,0.010498,-0.872097,
1.001,-0.921903,0.051027,-0.337168,-0.473159,0.010010,-0.865993,
0.000,-0.921903,0.051027,-0.337168,-0.473159,0.010010,-0.865993,
1.000,-0.921903,0.052736,-0.340342,-0.484390,0.010010,-0.864772,
1.000,-0.921903,0.052492,-0.342051,-0.473403,0.010743,-0.865260,
0.000,-0.921903,0.052492,-0.342051,-0.473403,0.010743,-0.865260,
1.000,-0.921903,0.049074,-0.340586,-0.484390,0.010010,-0.866725,
1.006,-0.921903,0.049074,-0.342051,-0.484390,0.000000,-0.870876,
0.000,-0.911893,0.049074,-0.342051,-0.481216,0.010010,-0.870876,
0.994,-0.921903,0.048341,-0.343272,-0.484390,0.010010,-0.866481,
1.000,-0.921903,0.046632,-0.351329,-0.474868,0.007813,-0.867946,
0.000,-0.921903,0.046632,-0.351329,-0.474868,0.007813,-0.871852,
1.000,-0.921903,0.049074,-0.358165,-0.484390,0.007813,-0.871852,
0.999,-0.921903,0.047853,-0.356944,-0.477553,0.010010,-0.867458,
0.000,-0.921903,-0.014649,-0.356944,-0.474380,0.008301,-0.865260,
1.001,-0.921903,0.043702,-0.353526,-0.484390,0.008301,-0.865260,
1.000,-0.921903,0.044191,-0.352061,-0.475356,0.010254,-0.869411,
0.000,-0.921903,0.044191,-0.352061,-0.474868,0.015381,-0.874782,
1.000,-0.921903,0.047365,-0.359386,-0.484390,0.015381,-0.874782,
0.463,-0.921903,0.047365,-0.368175,-0.484390,0.012940,-0.876980,
1.005,-0.921903,0.047365,-0.368175,-0.475844,0.010254,-0.876247,
0.000,-0.921903,0.041749,-0.369640,-0.484390,0.010254,-0.001221,
1.280,-0.921903,0.037110,-0.373302,-0.474624,0.013184,-0.876491,
1.005,-0.921903,0.037110,-0.373302,-0.473891,0.016602,-0.890652,
0.000,-0.921903,0.037355,-0.373058,-0.473891,0.016602,-0.878444,
1.008,-0.921903,0.038087,-0.365734,-0.484390,-0.014649,-0.879421,
0.000,-0.921903,0.038087,-0.367931,-0.484390,0.016358,-0.880642,
1.570,-0.921903,0.039064,-0.367931,-0.471938,0.016358,-0.880642,
0.000,-0.921903,0.039064,-0.368908,-0.484390,0.017090,-0.879909,
0.885,-0.921903,0.037843,-0.366466,-0.484390,0.015381,-0.877468,
1.061,-0.921903,0.037843,-0.366466,-0.484390,0.015381,-0.877468,
0.000,-0.921903,0.036622,-0.366954,-0.473159,0.013428,-0.876247,
0.953,-0.937528,0.038820,-0.361095,-0.475844,0.012452,-0.880642,
1.013,-0.937528,0.038820,-0.361095,-0.475844,0.012452,-0.880642,
0.773,-0.921903,0.010743,-0.361827,-0.479507,0.010498,-0.883572,
0.051,-0.921903,0.042970,-0.362804,-0.480727,0.011719,-0.877224,
1.004,-0.921903,0.031251,-0.362804,-0.472670,0.011719,-0.877224,
1.014,-0.937528,0.044435,-0.357921,-0.484390,0.013672,-0.875759,
0.000,-0.937528,0.046632,-0.358165,-0.500015,0.012940,-0.879421,
0.986,-0.937528,0.046632,-0.358165,-0.500015,0.012940,-0.879177,
0.000,0.000000,0.048097,-0.357677,-0.484390,0.010010,-0.879177,
1.000,-0.937528,0.049562,-0.359630,-0.478042,0.011475,-0.881130,
1.000,-0.937528,0.049562,-0.359630,-0.484390,0.014405,-0.880886,
1.011,-0.937528,0.049074,-0.360607,-0.484390,0.014405,-0.880886,
0.000,-0.937528,0.049562,-0.357188,-0.481216,0.011719,-0.881374,
0.989,-0.937528,0.049562,-0.357188,-0.480727,0.010010,-0.890652,
1.014,-0.937528,0.052492,-0.356456,-0.480727,0.010010,-0.884060,
0.000,-0.937528,0.052004,-0.356212,-0.480972,0.010743,-0.878200,
0.986,-0.937528,0.052004,-0.356212,-0.478774,0.011231,-0.873806,
0.000,-0.921903,0.046876,-0.360851,-0.480972,0.011231,-0.873806,
1.000,-0.921903,0.047853,-0.366710,-0.478042,0.009766,-0.871852,
1.000,0.000000,0.047853,-0.366710,-0.484390,0.007324,-0.874050,
1.014,-0.937528,0.046632,-0.364269,-0.484390,0.007324,-0.874050,
0.000,-0.921903,0.046144,-0.358898,-0.479263,0.009766,-0.882839,
0.986,-0.921903,0.044923,-0.358653,-0.478530,0.012452,-0.884304,
1.013,-0.921903,0.044923,-0.358653,-0.484390,0.012452,-0.884304,
0.000,-0.937528,0.046388,-0.361339,-0.479507,0.010498,-0.877956,
0.987,-0.921903,0.047365,-0.361583,-0.483169,0.011719,-0.875271,
0.000,-0.921903,0.047365,-0.361583,-0.483169,-0.003906,-0.875271,
0.999,-0.921903,0.045412,-0.365001,-0.481460,0.014649,-0.876980,
1.263,-0.921903,0.031251,-0.363536,-0.473647,-0.005371,-0.877224,
0.050,-0.921903,0.041993,-0.363536,-0.477309,0.010254,-0.877224,
1.003,-0.921903,0.039064,-0.359386,-0.484390,0.009766,-0.878200,
1.014,-0.921903,0.039064,-0.357433,-0.476577,0.016602,-0.880153,
0.000,0.000000,0.039064,-0.357433,-0.476577,0.016602,-0.880153,
0.987,-0.921903,0.042482,-0.000488,-0.468825,0.016114,-0.880153,
1.010,-0.921903,0.041505,-0.361583,0.009522,0.012452,-0.883572,
0.000,-0.921903,0.041505,-0.361583,-0.474868,0.012452,-0.882107,
0.990,-0.937528,0.039552,-0.354747,-0.484390,0.012452,-0.882107,
0.000,-0.937528,0.039552,-0.359630,-0.478774,0.013184,-0.890652,
1.000,-0.937528,0.039552,-0.359630,-0.479507,0.012696,-0.879665,
0.999,-0.921903,0.008301,-0.359630,-0.479507,0.012696,-0.879665,
1.011,-0.921903,0.043214,-0.355724,-0.479018,0.012696,-0.877224,
0.000,-0.921903,0.043214,-0.355724,-0.484390,0.011963,-0.874050,
0.990,-0.921903,0.045656,-0.357188,-0.478774,0.011963,-0.874050,
0.000,-0.921903,0.047365,-0.358653,-0.477798,0.012940,-0.874538,
1.000,-0.921903,0.047365,-0.358653,-0.475600,0.015870,-0.876247,
1.000,-0.921903,0.048585,-0.364025,-0.484390,0.015870,-0.876247,
1.000,-0.921903,0.046144,-0.015137,-0.477798,0.015625,-0.876247,
0.000,-0.921903,0.046144,-0.356456,0.005371,0.011475,-0.873073,
0.999,-0.921903,0.044435,-0.012696,-0.479018,0.011475,-0.873073,
1.012,-0.921903,0.046144,-0.360118,-0.474624,0.009766,-0.873317,
0.000,-0.921903,0.046876,-0.369640,-0.475600,0.012696,-0.871852,
1.006,-0.921903,0.046876,-0.363780,-0.475600,0.012696,-0.871852,
0.996,-0.921903,0.013428,-0.358898,-0.484390,0.013184,-0.866970,
0.000,-0.921903,0.044435,-0.352306,-0.476089,0.011963,-0.866481,
1.285,-0.921903,0.044435,-0.352306,-0.476089,0.011963,-0.866481,
0.000,-0.921903,0.043458,-0.355479,-0.477065,0.012207,-0.871364,
1.004,-0.921903,0.031251,-0.358409,-0.477798,0.013428,-0.872341,
1.011,-0.921903,0.040284,-0.358409,-0.484390,0.013428,-0.872341,
0.000,0.000000,0.040284,-0.358409,-0.476089,0.012940,-0.873806,
0.989,-0.921903,0.042726,-0.358898,-0.484390,0.009278,-0.873073,
1.007,-0.921903,0.042726,-0.358898,-0.484390,0.009278,-0.873073,
0.000,-0.921903,0.041261,-0.359142,-0.484390,0.009522,-0.871120,
0.994,-0.921903,0.042726,-0.357677,-0.484390,0.010254,-0.873562,
0.999,-0.921903,0.042726,-0.357677,-0.484390,0.010254,-0.873562,
0.000,-0.921903,0.043702,-0.354503,-0.475600,0.010743,-0.869899,
1.000,-0.921903,0.040284,-0.352550,-0.477798,0.013916,-0.869899,
1.016,-0.921903,0.040284,-0.352550,-0.473891,0.013916,-0.876491,
0.000,-0.921903,0.031251,-0.356700,-0.473891,0.013916,-0.876491,
0.985,-0.921903,0.045900,-0.357433,-0.476333,0.011231,-0.879909,
1.009,-0.921903,0.045900,-0.357433,-0.484390,0.005860,-0.879665,
0.000,-0.921903,0.042238,-0.353282,-0.484390,0.005860,-0.879665,
0.993,-0.919705,0.041749,-0.356456,-0.477309,0.005127,-0.876735,
1.014,-0.921903,0.041749,-0.356456,-0.484390,0.010987,-0.000244,
0.000,-0.906338,0.044435,-0.359386,0.000000,0.010987,-0.875271,
0.983,-0.921903,0.045656,-0.357188,-0.484390,0.012940,-0.872829,
1.012,-0.921903,0.045656,-0.360118,-0.479751,0.012207,-0.876003,
0.000,-0.921903,0.044435,-0.360118,-0.479751,0.012207,-0.890652,
0.989,-0.921903,0.044191,-0.361339,-0.480483,0.009766,-0.877224,
1.009,-0.937528,0.043214,-0.360851,-0.484390,0.012696,-0.875271,
0.000,-0.937528,0.043214,-0.360851,-0.479018,0.012696,-0.875271,
0.991,-0.937528,0.041993,-0.362071,-0.479995,0.016358,-0.877956,
0.999,-0.937528,0.043947,-0.362316,-0.479507,0.011231,-0.879421,
0.638,0.000000,0.043947,-0.362316,-0.484390,0.000000,-0.879421,
0.000,-0.926297,0.043214,-0.358409,-0.484390,0.011963,-0.878689,
1.004,-0.937528,0.042482,-0.358165,0.002686,0.014161,-0.876980,
0.999,-0.937528,0.042482,-0.358165,-0.481704,0.014161,-0.876980,
0.000,-0.937528,0.044435,-0.362804,-0.479263,0.011719,-0.882351,
1.001,-0.921903,0.044923,-0.359386,-0.478286,0.012940,-0.889431,
1.012,-0.921903,0.044923,-0.359386,-0.478286,0.012940,-0.889431,
0.000,-0.937528,0.044679,-0.356700,-0.479018,-0.000488,-0.889187,
0.989,-0.937528,0.041749,-0.362560,-0.484390,0.013184,-0.885036,
1.011,-0.937528,0.041749,-0.362560,-0.479995,0.013184,-0.885036,
0.000,-0.937528,0.043947,-0.365978,-0.484390,0.011231,-0.880642,
0.988,-0.937528,0.045656,-0.366222,-0.484390,0.000000,-0.882107,
1.000,-0.927030,0.045656,-0.366222,-0.484390,0.009278,-0.886501,
0.000,-0.937528,0.040773,-0.364025,-0.481216,0.009278,-0.886501,
1.000,-0.937528,0.039308,-0.360607,-0.478286,0.008545,-0.887966,
0.999,-0.937528,0.039308,-0.360607,-0.484390,0.008545,-0.887478,
0.000,-0.937528,0.040529,-0.357677,-0.478042,0.008545,-0.890652,
1.018,-0.937528,0.042726,-0.357433,-0.484390,0.010010,-0.884792,
0.983,-0.937528,-0.004151,-0.373058,-0.481216,0.011475,-0.881863,
0.000,-0.937528,0.043458,-0.360118,-0.481216,0.011475,-0.881863,
1.000,-0.937528,0.031251,-0.362804,-0.475844,0.008545,-0.878444,
1.013,-0.937528,0.040773,-0.358898,-0.477553,0.008057,-0.882595,
0.000,-0.937528,0.040773,-0.358898,-0.477553,0.008057,-0.882595,
0.987,-0.937528,0.043214,-0.356456,-0.484390,0.013916,-0.885525,
1.012,-0.921903,0.042726,-0.360118,-0.479018,0.010987,-0.880153,
0.000,-0.921903,0.042726,-0.360118,-0.479018,0.010987,-0.880153,
0.989,-0.921903,0.043702,-0.359142,-0.480483,0.007569,-0.878689,
1.032,-0.921903,-0.001465,-0.363048,-0.477065,0.010254,-0.878200,
0.000,-0.921903,0.045412,-0.363048,-0.477065,0.010254,-0.878200,
1.005,-0.921903,0.046144,-0.363292,-0.478530,0.009033,-0.878444,
1.005,-0.921903,0.044679,-0.355235,-0.484390,0.009766,-0.877956,
0.000,-0.921903,0.044679,-0.355235,-0.484390,0.000000,-0.877956,
0.994,-0.912137,0.044679,-0.357188,-0.484390,0.012940,-0.879421,
1.007,-0.921903,0.046388,-0.358165,-0.484390,0.000000,-0.876491,
0.000,-0.910916,0.046388,-0.358165,-0.477309,0.010987,-0.876491,
1.136,0.000000,0.047609,-0.354259,-0.484390,0.011475,-0.872341,
0.000,-0.921903,0.047121,-0.013672,-0.479263,0.009033,-0.867458,
0.984,-0.921903,0.047121,-0.357433,-0.484390,0.009033,-0.867458,
1.009,-0.921903,0.046632,-0.357433,-0.478286,0.005860,-0.865505,
0.000,-0.921903,0.046632,-0.357433,-0.484390,0.008789,-0.869899,
0.995,-0.921903,0.046632,-0.357433,-0.475356,0.010498,-0.869167,
1.005,-0.921903,0.046388,-0.360118,-0.475356,0.010498,-0.869167,
0.000,-0.921903,0.051027,-0.357921,-0.484390,0.013672,-0.868923,
0.996,-0.921903,0.051027,-0.357921,-0.484390,0.013672,-0.868923,
0.997,-0.921903,0.049806,-0.357188,-0.484390,0.013672,-0.868923,
0.000,-0.921903,0.046388,-0.355479,-0.474380,0.011231,-0.879421,
0.998,0.000000,0.044435,-0.354015,-0.484390,0.009522,-0.871608,
1.009,-0.921903,0.044435,-0.354015,-0.484390,0.009522,-0.871608,
0.000,-0.919461,0.041261,-0.356944,0.000000,0.008057,-0.871364,
0.995,-0.921903,0.042482,-0.353770,-0.479018,0.008301,-0.013428,
1.006,-0.906338,0.042482,-0.353770,-0.479018,0.008301,-0.872829,
0.000,-0.921903,0.043458,-0.353770,-0.481216,0.011963,-0.873806,
0.995,-0.921903,0.043702,-0.359386,-0.480972,0.012696,-0.873562,
0.995,-0.921903,0.043702,-0.359386,-0.484390,0.012696,-0.873562,
0.000,-0.921903,0.045412,-0.359630,-0.478774,0.010987,-0.874050,
1.565,-0.921903,0.045412,-0.356700,-0.476821,0.000000,-0.875515,
0.630,-0.908231,0.045412,-0.356700,-0.476821,0.013672,-0.875515,
0.000,-0.921903,0.045167,-0.357921,-0.484390,0.014649,-0.877956,
1.010,-0.937528,0.044679,0.011719,-0.468825,0.013184,-0.876735,
1.001,-0.937528,0.044679,-0.363292,-0.484390,0.013184,-0.876735,
0.000,-0.921903,0.045167,-0.360851,-0.480239,0.015381,-0.001709,
0.999,-0.921903,0.046388,-0.361339,-0.479507,0.016114,-0.878933,
1.000,-0.921903,0.046388,-0.361339,-0.484390,0.016114,-0.878933,
0.000,-0.937528,0.045412,-0.364513,-0.484390,0.016114,-0.879665,
1.000,-0.937528,0.044679,-0.359630,-0.475600,0.016846,-0.875026,
1.000,-0.937528,0.044679,-0.359630,-0.475600,0.016846,-0.875026,
0.000,-0.921903,0.046388,-0.359142,-0.475844,0.013184,-0.871120,
1.000,-0.921903,0.047365,-0.360362,-0.476821,0.013672,-0.877224,
0.999,-0.921903,0.047365,-0.360362,-0.484390,0.000000,-0.879421,
0.000,-0.911649,0.044923,-0.358409,-0.474868,0.010254,-0.879421,
1.001,0.000000,0.041017,-0.361095,-0.484390,0.008057,-0.875026,
1.000,-0.921903,0.041017,-0.361095,-0.484390,0.011231,-0.871852,
0.000,-0.921903,0.041017,-0.366222,0.002197,0.011231,-0.871852,
1.000,-0.921903,0.042482,-0.368908,-0.479263,0.011963,-0.873073,
1.006,-0.921903,0.044191,-0.361827,-0.484390,0.010254,-0.873806,
0.000,-0.921903,0.044191,-0.361827,-0.476821,0.010254,-0.875026,
0.995,0.000000,0.031251,-0.354259,-0.478286,0.010010,-0.876980,
1.005,-0.921903,-0.004883,-0.353526,-0.484390,0.012452,-0.877956,
0.000,-0.921903,0.041993,-0.353526,-0.484390,0.012452,-0.877956,
0.994,-0.937528,0.044435,-0.355235,-0.477798,0.011719,-0.876003,
1.006,-0.921903,0.044679,-0.357188,-0.479263,0.010254,-0.879665,
0.335,-0.921903,0.044679,-0.357188,-0.484390,0.010254,-0.879665,
0.750,-0.937528,0.044191,-0.353038,-0.484390,0.008301,-0.876980,
0.000,0.000000,0.044191,-0.354747,-0.484390,0.007324,-0.878200,
1.005,-0.937528,0.044191,-0.354747,-0.484390,0.007324,-0.878200,
1.009,-0.921659,0.046632,-0.358165,-0.484390,0.007813,-0.884060,
1.006,-0.937528,0.046144,-0.357921,-0.484390,0.008545,-0.882595,
0.000,-0.937528,0.046144,-0.357921,-0.476577,0.008545,-0.882595,
0.985,-0.937528,0.041505,-0.362560,-0.479263,0.010010,-0.876980,
0.000,-0.921903,0.040773,-0.361583,-0.482925,0.012696,-0.874294,
0.000,-0.921903,0.040773,-0.361583,-0.484390,0.012696,-0.874294,
0.996,-0.921903,0.045167,-0.359142,-0.484390,0.013672,-0.870388,
1.009,-0.921903,0.046632,-0.356456,-0.484390,0.010254,-0.869899,
0.000,-0.921903,0.046632,-0.356456,-0.484390,0.010254,-0.869899,
0.992,-0.921903,0.044435,-0.355235,-0.477553,0.007813,-0.872585,
1.007,-0.921903,0.044679,0.005371,-0.478530,0.011963,-0.874538,
0.000,-0.921903,0.044679,-0.354015,-0.484390,0.012696,-0.876247,
0.992,-0.921903,0.047365,-0.352794,-0.477553,0.012696,-0.890652,
1.009,-0.921903,0.044435,-0.361339,-0.480239,0.011719,-0.873073,
0.000,-0.921903,0.041749,-0.362804,-0.481216,0.012940,-0.872585,
0.992,-0.921903,0.041749,-0.362804,0.003174,0.012940,-0.872585,
1.011,-0.937528,0.031251,-0.360118,-0.473647,0.014649,-0.874782,
0.000,-0.937528,0.040040,-0.361583,-0.484390,0.014405,-0.880398,
0.989,-0.937528,0.040040,-0.361583,-0.477553,0.014405,-0.880398,
1.007,-0.921903,0.039796,-0.361095,-0.484390,0.014405,-0.884792,
0.000,-0.921903,0.042726,-0.361583,-0.484390,0.012940,-0.882107,
0.993,-0.921903,0.042726,-0.361583,-0.484390,0.012940,-0.882107,
0.000,0.000000,0.044435,-0.362804,-0.484390,0.000000,-0.885525,
1.546,-0.909695,0.041261,-0.364757,-0.484390,0.012940,-0.882351,
0.759,-0.921903,0.041261,-0.364757,-0.474135,0.012940,-0.882351,
0.000,-0.937528,0.039796,-0.361583,-0.484390,0.008789,-0.876980,
1.223,-0.921903,0.037599,-0.362316,-0.473647,0.008545,-0.882107,
0.052,-0.921903,0.037599,-0.362316,-0.484390,0.008545,-0.007080,
1.004,-0.921903,0.039308,-0.365734,-0.476577,0.012207,-0.878444,
1.015,-0.921903,0.041017,-0.361583,-0.478042,0.014405,-0.875026,
0.000,-0.921903,0.041017,-0.361583,-0.478042,0.014405,-0.871852,
0.985,-0.921903,0.010010,-0.356944,-0.478774,0.012452,-0.875515,
1.000,-0.937528,0.047121,-0.356700,-0.480239,0.010498,-0.879909,
0.000,-0.937528,0.046876,-0.356700,-0.484145,0.010498,-0.879909,
1.000,-0.921903,0.044435,-0.361095,-0.484390,0.012452,-0.872097,
1.012,-0.937528,0.036866,-0.359874,-0.484390,0.013428,-0.869655,
0.000,-0.937528,0.036866,-0.359874,-0.477553,0.013428,-0.869655,
0.988,-0.937528,0.037843,-0.360607,0.000000,0.012940,-0.873806,
1.007,-0.937528,0.037843,-0.360607,-0.472915,0.011719,-0.002197,
0.000,-0.937528,0.037843,-0.360607,-0.484390,0.011719,-0.883572,
0.993,-0.921903,0.045167,-0.365245,-0.475356,0.010254,-0.883572,
1.022,-0.921903,0.041749,-0.364269,-0.476821,0.010010,-0.881130,
0.000,-0.921903,0.042726,-0.359142,-0.473403,0.012452,-0.876735,
0.979,-0.921903,0.042726,-0.359142,-0.484390,0.012452,-0.876735,
1.009,-0.921903,0.044923,-0.365734,-0.484390,0.000000,-0.877224,
0.000,-0.908719,0.045167,-0.365734,-0.477798,0.009522,-0.873806,
0.990,-0.921903,0.045167,-0.365734,-0.484390,0.009522,-0.873806,
1.013,-0.921903,0.044923,-0.361583,-0.484390,0.010010,-0.869167,
0.000,-0.918973,0.042238,-0.364757,-0.472182,0.009522,-0.867702,
0.987,-0.921903,0.042238,-0.364757,-0.484390,0.009522,-0.867702,
1.000,-0.921903,0.039308,-0.362316,-0.472182,0.008545,-0.871608,
0.000,-0.921903,0.040284,-0.359386,-0.475600,0.009278,-0.875026,
1.295,-0.921903,0.040284,-0.359386,-0.484390,0.009278,-0.875026,
0.319,-0.921903,0.031251,-0.358165,-0.475844,0.007813,-0.876247,
1.064,-0.921903,0.043947,-0.358165,-0.474868,0.008545,-0.879421,
0.000,0.000000,0.043947,-0.358165,-0.484390,0.008545,-0.879421,
0.978,-0.921903,0.043458,-0.356456,-0.484390,0.010987,-0.873806,
1.185,-0.921903,0.041749,-0.354015,0.000000,0.015137,-0.871852,
0.000,-0.921903,0.041749,-0.354015,-0.484390,0.015137,-0.871852,
0.863,-0.921903,0.039308,-0.353038,-0.476577,0.012452,-0.875271,
0.968,-0.921903,0.040284,-0.356456,-0.474624,0.012452,-0.875026,
0.000,-0.921903,0.040284,-0.356456,-0.474624,0.012452,-0.874782,
0.988,-0.921903,0.043458,-0.362316,-0.476089,0.017579,-0.873806,
1.007,-0.921903,0.044191,-0.359630,-0.477553,0.014161,-0.873317,
0.000,-0.921903,0.044191,-0.359630,-0.484390,0.014161,-0.888943,
0.993,-0.921903,0.040773,-0.358898,-0.478530,0.013184,-0.875515,
1.009,-0.921903,0.040773,-0.358898,-0.479018,0.015137,-0.873073,
0.991,-0.916287,0.038087,-0.359630,-0.471450,0.021241,-0.874294,
1.009,-0.916287,0.038087,-0.375011,-0.471450,0.021241,-0.874294,
1.015,-0.921903,0.041993,-0.365734,-0.473159,0.017823,-0.870876,
0.000,-0.921903,0.041993,-0.365734,-0.473159,0.017823,-0.870876,
0.985,-0.921903,0.043214,-0.361827,-0.476821,0.014161,-0.868923,
0.000,-0.921903,0.044435,-0.363292,-0.481704,0.010743,-0.876003,
0.991,-0.921903,0.044435,-0.363292,-0.484390,0.010743,-0.876003,
1.009,-0.921903,0.043458,-0.366222,-0.484390,0.000000,-0.877956,
0.000,-0.912137,0.043458,-0.366222,-0.484390,0.010743,-0.874050,
0.999,0.000000,0.036866,-0.361827,-0.484390,0.012940,-0.874050,
1.035,-0.921903,0.036866,-0.002441,-0.484390,0.012940,-0.874050,
1.013,-0.921903,0.036866,-0.361583,-0.478530,0.013916,-0.879177,
0.477,-0.937528,0.038820,-0.367931,-0.476333,0.012452,-0.885525,
0.000,-0.937528,0.038820,-0.367931,-0.476333,0.012452,-0.885525,
0.849,-0.937528,0.038087,-0.371837,-0.477798,0.012207,-0.885036,
1.005,-0.937528,0.040040,-0.370128,-0.478774,0.011719,-0.882107,
0.000,-0.937528,0.040040,-0.370128,-0.484390,0.011719,-0.882107,
0.999,-0.921903,0.044679,-0.369396,-0.484390,0.012940,-0.882107,
1.001,-0.937528,0.043214,-0.362071,-0.484390,0.011963,-0.885281,
0.000,-0.937528,0.043214,-0.362071,-0.478042,0.011963,-0.885281,
0.999,-0.937528,0.039064,-0.358653,-0.484390,0.011231,-0.887966,
0.999,-0.921903,0.040773,-0.004639,-0.476089,0.015625,-0.883083,
1.001,-0.921903,0.040773,-0.364025,-0.484390,0.015625,-0.883083,
0.000,-0.937528,0.043458,-0.364269,-0.478774,0.015625,-0.878444,
0.999,-0.937528,0.043214,-0.364269,-0.477798,0.014161,-0.881863,
1.000,-0.937528,0.043214,-0.364269,-0.477798,0.014161,-0.881863,
0.000,-0.937528,0.043214,-0.364269,-0.475844,0.012207,-0.884060,
1.001,-0.921903,0.042482,-0.365001,-0.476333,0.011963,-0.882595,
0.000,-0.921903,0.042482,-0.365001,-0.476333,0.011963,-0.882595,
1.001,-0.921903,0.045167,-0.366710,-0.476333,0.012452,-0.884304,
1.009,-0.921903,0.041017,-0.362560,-0.484390,0.014161,-0.888455,
0.000,-0.921903,0.041017,-0.362560,-0.484390,0.014161,-0.888455,
0.989,-0.921903,0.037599,-0.359874,-0.484390,0.014161,-0.885281,
1.007,-0.921903,0.038820,-0.368419,-0.479751,0.010254,-0.877224,
0.000,-0.921903,0.040284,-0.370373,-0.479751,0.010254,-0.877224,
0.994,-0.937528,0.040284,-0.370373,-0.484390,0.012207,-0.877956,
0.999,-0.937528,0.042970,-0.363292,-0.482436,0.014161,-0.878933,
0.000,-0.937528,0.044679,-0.358653,-0.482436,0.012940,-0.878444,
1.491,-0.937528,0.044679,-0.358653,-0.484390,-0.002686,-0.878444,
0.666,-0.937528,0.044923,-0.362316,-0.484390,0.012207,-0.879421,
0.220,-0.937528,0.031251,-0.364513,-0.474868,-0.001221,-0.874294,
1.004,-0.937528,0.040773,-0.364513,-0.476821,0.014405,-0.874294,
0.000,-0.921903,0.040040,-0.363292,-0.479507,0.015625,-0.872341,
1.000,-0.920682,0.042482,-0.365978,-0.478530,0.014161,-0.871364,
1.009,-0.917020,0.042482,-0.365978,-0.478530,0.014161,-0.871364,
0.000,-0.921903,0.040284,-0.366710,-0.484390,0.013428,-0.012696,
0.990,-0.921903,0.042238,-0.359874,-0.471206,0.014649,-0.872097,
1.009,-0.921903,0.042238,-0.359874,-0.484390,0.014649,-0.872097,
0.000,-0.921903,0.044923,-0.356456,-0.472182,0.011475,-0.871852,
0.992,-0.921903,0.044191,-0.361095,-0.484390,0.010254,-0.875515,
1.011,-0.921903,0.044191,-0.361095,-0.484390,0.010254,-0.875515,
0.000,-0.921903,0.044923,-0.357188,-0.484390,0.014405,-0.873806,
0.988,-0.921903,0.043702,-0.354747,-0.484390,0.015381,-0.872341,
1.001,-0.921903,0.043702,-0.354747,-0.484390,0.015381,-0.872341,
0.000,-0.921903,0.041017,-0.360118,-0.484390,0.015625,-0.877468,
0.999,-0.921903,0.040773,-0.359630,-0.484390,0.014649,-0.873562,
1.002,-0.921903,0.031251,-0.358409,-0.477309,0.013184,-0.868679,
0.998,-0.918973,0.037843,-0.359386,-0.484390,0.012452,-0.871120,
0.000,-0.921903,0.037843,-0.359386,-0.473647,0.012452,-0.871120,
1.011,-0.921903,0.038087,-0.360607,-0.475600,0.013672,-0.873806,
0.990,-0.921903,0.037599,-0.365490,-0.476333,0.014405,-0.876735,
0.000,-0.921903,0.037599,-0.365490,-0.484390,0.014405,-0.876735,
1.008,-0.921903,0.040284,-0.361583,-0.484390,0.011475,-0.872585,
1.196,-0.921903,0.041993,-0.361339,-0.479018,0.012940,-0.869411,
0.680,-0.921903,0.041993,-0.361339,-0.484390,0.012940,-0.869411,
0.000,-0.921903,0.012940,-0.361339,-0.484390,0.015381,-0.868923,
1.008,-0.921903,0.042726,-0.353770,-0.479995,0.012696,-0.871608,
1.007,-0.921903,0.042726,-0.353770,-0.484390,0.012696,-0.871608,
0.000,-0.921903,0.040284,-0.354747,-0.476821,0.014161,-0.871608,
0.994,-0.921903,0.040284,-0.356944,-0.484390,0.016114,-0.867458,
1.029,-0.921903,0.040284,-0.356944,-0.472915,0.016114,-0.867458,
0.000,-0.917264,0.040529,-0.361339,-0.476577,0.014893,-0.869655,
0.972,-0.921903,0.045167,-0.372570,-0.480727,0.014893,-0.874782,
1.005,-0.921903,0.045167,-0.362804,-0.484390,0.014893,-0.874782,
0.000,-0.921903,0.045167,-0.360607,-0.480972,0.013916,-0.875026,
0.993,-0.921903,0.046876,-0.365001,-0.484390,0.016358,-0.875271,
1.007,-0.921903,0.000000,-0.365001,-0.484390,0.016358,-0.875271,
0.000,-0.921903,0.048830,-0.365001,-0.484390,0.015870,-0.877712,
0.993,-0.921903,0.043702,-0.362560,-0.484390,0.013672,-0.876003,
1.006,-0.921903,0.040773,-0.364269,-0.478042,0.013672,-0.876003,
0.000,-0.921903,0.040773,-0.364269,-0.484390,0.013184,-0.877224,
0.995,-0.937528,0.042726,-0.361095,-0.480239,0.013916,-0.882839,
1.006,-0.921903,0.044435,-0.362071,-0.480239,0.013184,-0.884060,
0.000,-0.921903,0.044435,-0.373302,-0.479263,0.013184,-0.884060,
0.993,-0.921903,0.042482,-0.361339,-0.484390,0.010743,-0.879665,
1.009,-0.937528,0.044191,-0.359874,-0.482681,0.012452,-0.878689,
0.000,-0.937528,0.044191,-0.359874,-0.482681,0.012452,-0.878689,
0.991,-0.937528,0.050539,-0.367443,-0.481460,0.012207,-0.880398,
1.010,-0.937528,0.047609,-0.363780,-0.484390,0.012940,-0.885769,
0.000,-0.937528,0.047609,-0.363780,-0.484390,0.012940,-0.885769,
1.111,-0.937528,0.041261,-0.360362,-0.484390,0.011231,-0.885769,
0.000,-0.937528,0.042726,-0.363536,-0.484390,0.008545,-0.878689,
1.000,-0.937528,0.042726,-0.363536,-0.477065,0.008545,-0.878689,
1.402,-0.937528,0.042726,-0.362316,-0.484390,0.010498,-0.875271,
0.094,-0.921903,0.041505,-0.357188,-0.477309,0.010987,-0.876980,
1.073,-0.921659,0.041505,-0.357188,-0.477309,0.010987,-0.876980,
0.000,-0.937528,0.040529,-0.356212,-0.484390,0.009278,-0.878200,
0.932,-0.921903,0.040040,-0.361339,-0.479507,0.010743,-0.874782,
1.006,-0.921903,0.008789,-0.361339,-0.479507,0.010743,-0.874782,
0.000,-0.921903,0.043702,-0.365490,-0.478530,0.014161,-0.875515,
0.993,-0.937528,0.045900,-0.369640,-0.474380,0.013428,-0.878200,
1.007,-0.937528,0.045900,-0.369640,-0.474380,0.013428,-0.878200,
0.000,-0.921903,0.042238,-0.365978,-0.476089,0.013916,-0.876003,
0.993,-0.921903,0.042970,-0.358653,-0.484390,0.013184,-0.876247,
1.006,-0.918241,0.045900,-0.360362,-0.479263,0.013184,-0.876247,
0.000,-0.921903,0.045900,-0.374279,-0.477553,0.011231,-0.876003,
0.994,-0.937528,0.041749,-0.361339,-0.484390,0.010010,-0.878444,
1.007,-0.937528,0.040284,-0.358165,-0.484390,0.010010,-0.878444,
0.000,-0.937528,0.040284,-0.358165,-0.483657,0.008545,-0.883572,
0.993,-0.921903,-0.004395,-0.358653,-0.482436,0.011231,-0.879909,
1.009,-0.937528,0.044191,-0.358409,-0.482436,0.011231,-0.878689,
0.000,-0.937528,0.044191,-0.358409,-0.479263,0.012940,-0.878689,
0.991,-0.937528,0.045656,-0.357188,-0.478530,0.013428,-0.884304,
1.000,-0.921903,0.046876,-0.359874,-0.484390,0.000000,-0.881618,
0.000,-0.911893,0.046876,-0.359874,-0.484390,0.010010,-0.881618,
1.001,0.000000,0.044191,-0.360118,-0.484390,0.009522,-0.877712,
1.006,-0.937528,0.040529,-0.357433,-0.477553,0.012452,-0.876980,
0.000,0.000000,0.040529,-0.357433,-0.484390,0.000000,-0.876980,
0.994,-0.925077,0.040529,-0.354747,-0.484390,0.011963,-0.872585,
1.007,-0.921903,0.043702,-0.352061,-0.484390,0.010254,-0.873806,
0.000,-0.921903,0.043702,-0.352061,-0.484390,0.010254,-0.873806,
0.992,-0.921903,0.044923,-0.356212,-0.484390,0.006836,-0.879177,
1.034,-0.921903,0.042238,-0.373791,-0.484390,0.010987,-0.002686,
0.662,-0.921903,0.042238,-0.359630,-0.480727,0.010987,-0.877712,
0.000,-0.937528,0.043458,-0.361827,-0.482192,0.012940,-0.015381,
1.007,-0.937528,0.042238,-0.366954,-0.479507,0.012452,-0.881130,
1.014,-0.937528,0.042238,-0.366954,-0.484390,0.012452,-0.881130,
0.089,-0.937528,0.042726,-0.367687,-0.475356,0.012696,-0.882107,
1.000,-0.921903,0.046388,-0.368663,-0.484390,0.012940,-0.877468,
1.010,-0.921903,0.046388,-0.368663,-0.477553,0.012940,-0.877468,
0.000,-0.921903,0.045412,-0.368419,-0.484390,0.014649,-0.876491,
0.990,-0.921903,0.043214,-0.366710,-0.484390,0.013428,-0.874782,
1.012,-0.921903,0.044191,-0.362071,-0.484390,0.013428,-0.874782,
0.000,-0.921903,0.044191,-0.362071,-0.484390,0.011719,-0.875759,
0.988,-0.921903,0.045167,-0.359386,-0.476577,0.009766,-0.878200,
1.009,-0.921903,0.041993,-0.363536,-0.476577,0.009766,-0.003174,
0.088,-0.921903,0.041993,-0.363536,-0.479263,0.009766,-0.880642,
1.000,-0.921903,0.041261,-0.362071,-0.478774,0.008789,-0.876491,
0.000,-0.921903,0.040773,-0.359142,-0.478774,0.008789,-0.876491,
1.001,-0.921903,0.040773,-0.359142,-0.474868,0.009278,-0.875271,
1.012,-0.937528,0.038331,-0.355724,-0.484390,0.010987,-0.877224,
0.000,-0.921903,0.041749,-0.358653,-0.484390,0.000000,-0.869899,
0.988,-0.911160,0.041749,-0.358653,-0.484390,0.010743,-0.869899,
0.999,0.000000,0.043947,-0.361583,-0.484390,0.009033,-0.868923,
0.000,-0.921903,0.041993,-0.361095,-0.475844,0.006348,-0.871852,
1.000,-0.921903,0.041993,-0.361095,0.008545,0.006348,-0.871852,
1.009,-0.921903,0.040773,-0.004395,-0.484390,0.008789,-0.870876,
0.991,-0.921903,0.039552,-0.361095,-0.479018,0.010987,-0.870632,
0.000,-0.921903,0.039552,-0.361095,-0.479018,0.010987,-0.870632,
1.000,-0.921903,0.041993,-0.354991,-0.484390,0.010987,-0.872585,
0.000,-0.921903,0.044923,-0.357921,-0.473403,0.009278,-0.875026,
1.001,-0.921903,0.044923,-0.357921,-0.473403,0.009278,-0.873073,
1.009,-0.921903,-0.001221,-0.359874,-0.478042,0.009766,-0.871364,
0.000,-0.921903,0.044191,-0.354259,-0.484390,0.011231,-0.873806,
1.454,-0.921903,0.044191,-0.354259,-0.480239,0.011231,-0.873806,
0.668,-0.921903,0.044679,-0.352794,-0.479507,0.008789,-0.876735,
0.000,-0.921903,0.046876,-0.354259,-0.484390,0.006104,-0.871364,
1.010,-0.921903,0.046876,-0.353770,-0.484390,0.006104,-0.871364,
1.000,0.000000,0.044679,-0.353770,-0.484390,0.008301,-0.869655,
0.000,-0.921903,0.041749,-0.354259,-0.484390,0.010010,-0.869411,
1.000,-0.921903,0.040529,-0.354015,-0.479751,0.010010,-0.869411,
0.000,-0.921903,0.040529,-0.354015,-0.484390,0.010010,-0.873562,
1.000,-0.921903,0.041261,-0.351573,-0.479018,0.010987,-0.880398,
1.001,-0.937528,-0.005615,-0.354259,-0.479018,0.010987,-0.880398,
1.183,-0.937528,0.041261,-0.354259,-0.476577,0.012452,-0.877712,
0.000,-0.921903,0.040773,-0.358898,-0.484390,0.011719,-0.879177,
0.817,-0.921903,0.044191,-0.362071,-0.484390,0.011719,-0.879177,
1.011,-0.921903,0.044191,-0.362071,-0.474624,0.009278,-0.875759,
0.000,-0.921903,0.044923,-0.365001,-0.484390,0.011231,-0.876247,
0.989,-0.921903,0.041749,-0.360851,-0.475112,0.009033,-0.879421,
1.000,-0.921903,0.041749,-0.360851,-0.477309,0.009033,-0.879421,
0.000,-0.921903,0.041749,-0.360851,-0.484390,0.009766,-0.875271,
0.999,-0.921903,0.039064,-0.360118,-0.471450,0.013428,-0.876247,
1.011,-0.921903,0.039064,-0.360118,-0.471450,0.013428,-0.876247,
0.000,-0.937528,0.043947,-0.365001,-0.474624,0.014161,-0.876003,
0.990,-0.937528,0.047121,-0.365245,-0.479018,0.012696,-0.877468,
1.013,-0.937528,0.047121,-0.365245,-0.479018,0.012696,-0.877468,
0.000,-0.921903,0.042970,-0.001709,-0.468825,0.007813,-0.876003,
0.987,-0.921903,0.041749,-0.356456,0.001709,0.006836,-0.873806,
1.011,-0.921903,0.041749,-0.356456,-0.482681,0.006836,-0.873806,
0.000,-0.921903,0.038820,-0.355968,-0.479995,0.008301,-0.877712,
0.989,-0.921903,0.038820,-0.355968,-0.478774,0.009522,-0.884792,
0.999,-0.921903,0.038820,-0.358898,-0.478774,0.009522,-0.884792,
0.000,-0.921903,-0.008057,-0.358898,-0.478530,0.011475,-0.882595,
1.320,-0.921903,0.038820,-0.364025,-0.474135,0.011475,-0.873073,
0.680,-0.937528,0.041993,-0.362316,-0.474135,0.011475,-0.873073,
0.000,-0.937528,0.041993,-0.362316,-0.477553,0.009522,-0.876735,
1.009,-0.937528,0.042482,-0.358165,-0.481460,0.009033,-0.881374,
1.006,-0.937528,0.044679,-0.358653,-0.484390,0.009033,-0.881374,
0.000,-0.924833,0.044679,-0.358653,-0.479751,0.009278,-0.878200,
1.329,-0.937528,0.044923,-0.360851,-0.474868,0.009278,-0.880642,
0.000,-0.937528,0.042238,-0.359142,-0.474868,0.009278,-0.880642,
1.003,-0.937528,-0.004639,-0.359142,-0.476821,0.007813,-0.882351,
1.007,-0.921903,0.041505,-0.356944,-0.480727,0.005615,-0.882351,
0.000,-0.921903,0.041261,-0.358165,-0.480727,0.005615,-0.880642,
1.019,-0.921903,0.041261,-0.358165,-0.478286,0.007080,-0.880642,
0.985,0.000000,0.041505,-0.357921,-0.480239,0.007813,-0.875759,
0.000,-0.937528,0.041017,0.003906,-0.481704,0.008057,-0.875515,
0.990,-0.925809,0.041017,-0.355479,-0.481704,0.008057,-0.875515,
0.999,-0.937528,0.040284,-0.359142,-0.484390,0.011719,-0.002930,
0.000,-0.921964,0.040284,-0.360851,-0.484390,0.012452,-0.881863,
1.001,-0.937528,0.040284,-0.359874,-0.480727,0.012452,-0.881863,
1.010,-0.937528,0.040773,-0.355724,-0.479995,0.012696,-0.882839,
0.000,-0.937528,0.042238,-0.355479,-0.480483,0.012696,-0.879909,
0.990,-0.937528,0.042238,-0.355479,-0.480483,0.012696,-0.879909,
1.007,-0.921903,0.041993,-0.358898,-0.484390,0.011719,-0.879665,
0.000,-0.921903,0.043214,-0.360607,-0.484390,0.012207,-0.879421,
0.993,0.000000,0.043214,-0.360607,-0.484390,0.012207,-0.879421,
0.999,-0.937528,0.045412,-0.362560,-0.484390,0.009278,-0.880153,
0.000,-0.918973,0.043947,-0.366222,0.000000,0.009033,-0.881374,
1.001,-0.921903,0.044435,-0.365734,-0.476333,0.009033,-0.006348,
1.008,-0.921903,0.044435,-0.365734,-0.484390,0.014161,-0.877956,
0.000,-0.937528,0.045412,-0.363292,-0.484390,0.012696,-0.877468,
0.992,-0.937528,0.042238,-0.360607,-0.484390,0.012696,-0.877468,
1.008,-0.937528,0.042238,-0.360607,-0.481460,0.009278,-0.873806,
0.000,-0.921903,0.043458,-0.357921,-0.480483,0.010987,-0.874294,
0.992,-0.937528,0.046144,-0.357188,-0.484390,0.000000,-0.874294,
1.000,-0.926542,0.046144,-0.357188,-0.484390,0.009766,-0.881863,
0.557,0.000000,0.045167,-0.355968,-0.484390,0.009766,-0.882839,
0.209,-0.921903,0.042482,-0.359630,-0.484390,0.009766,-0.882839,
1.016,-0.921903,0.042482,-0.359630,-0.473891,0.009278,-0.877956,
0.000,-0.921903,0.041017,-0.365245,-0.475356,0.006592,-0.875026,
0.996,-0.921903,0.043458,-0.363536,-0.484390,0.006592,-0.874050,
0.992,-0.921903,0.043458,-0.363536,-0.476577,0.009278,-0.874050,
0.000,-0.921903,0.041993,-0.358898,-0.484390,0.012940,-0.875271,
1.009,-0.921903,0.042726,-0.358409,-0.476821,-0.002930,-0.874538,
0.991,-0.921903,0.042726,-0.358409,-0.484390,0.012696,-0.874538,
0.000,-0.921903,0.043702,-0.358898,-0.475112,0.000000,-0.877712,
1.001,-0.907986,0.042482,-0.359874,-0.474135,0.012696,-0.881130,
0.999,0.000000,0.042482,-0.359874,-0.484390,0.000000,-0.881130,
1.000,-0.909207,0.044679,-0.362804,-0.473647,0.009033,-0.880642,
0.000,-0.921903,0.044679,-0.362804,0.008301,0.010254,-0.883083,
1.000,-0.921903,0.044679,-0.362804,-0.484390,0.010254,-0.883083,
0.000,-0.921903,0.043947,-0.352794,-0.477309,0.011231,-0.877712,
1.008,-0.921903,0.041261,-0.357433,-0.478286,0.013916,-0.872829,
0.992,-0.921903,0.042970,-0.356700,-0.484390,0.013916,-0.872829,
0.000,-0.937528,0.042970,-0.356700,-0.478774,0.015381,-0.874538,
1.000,-0.921903,0.043702,-0.352794,-0.477309,0.011475,-0.877224,
1.000,-0.921903,0.041505,-0.350597,-0.484390,0.011475,-0.877224,
1.009,-0.921903,0.041505,-0.350597,-0.484390,0.010987,-0.875515,
0.000,-0.921903,0.041261,-0.356700,-0.484390,0.009522,-0.872097,
0.991,-0.921903,-0.000061,-0.357921,-0.479018,0.009522,-0.872097,
0.000,-0.921903,0.040773,-0.357921,-0.484390,0.011719,-0.871852,
1.000,-0.921903,0.041505,-0.355968,-0.474135,0.015870,-0.011231,
1.000,-0.921964,0.046388,-0.357921,-0.474135,0.015870,-0.870632,
0.000,-0.937528,0.046388,-0.357921,-0.484390,0.014405,-0.873317,
1.700,-0.921903,0.043702,-0.356212,-0.474868,0.012940,-0.876003,
0.000,-0.921903,-0.008545,-0.358409,-0.474868,0.012940,-0.876003,
1.006,-0.921903,0.038331,-0.358409,-0.476577,0.010743,-0.872097,
0.000,-0.921903,0.038820,-0.362804,-0.476821,0.010010,-0.870632,
1.053,-0.921903,0.039308,-0.354503,-0.476821,0.010010,-0.873806,
0.983,0.000000,0.039308,-0.354503,-0.484390,0.011231,-0.873806,
0.000,-0.921903,0.040040,-0.354503,-0.484390,0.012207,-0.870632,
1.017,-0.921903,0.041993,-0.360851,-0.484390,0.011231,-0.873562,
0.982,-0.921903,0.041993,-0.360851,-0.482925,0.011231,-0.014161,
0.000,-0.921903,0.044923,-0.354503,-0.478774,0.006836,-0.881863,
0.996,-0.921903,0.044679,-0.352794,-0.484390,0.008057,-0.881130,
0.968,-0.921903,0.044679,-0.352794,-0.484390,0.008057,-0.881130,
1.008,-0.921903,0.043214,-0.360118,-0.476821,0.009522,-0.890652,
0.000,-0.921903,0.043458,-0.366466,-0.478286,0.009522,-0.877224,
1.017,-0.921903,0.043458,-0.359874,-0.478286,0.009522,-0.877224,
0.000,-0.921903,0.041505,-0.359874,-0.476821,0.011719,-0.877712,
1.009,-0.921903,0.040284,-0.355235,-0.484390,0.009033,-0.875026,
0.966,-0.921903,0.041993,-0.364269,-0.484390,0.009033,-0.875026,
0.000,-0.921903,0.041993,-0.364269,-0.484390,0.013428,-0.876491,
1.008,-0.921903,0.045656,-0.366954,-0.480727,0.016602,-0.879177,
0.992,-0.921903,0.046144,-0.357188,0.003662,0.016602,-0.879177,
0.000,-0.921903,0.046144,-0.357188,-0.480483,0.012696,-0.876735,
1.001,-0.921903,0.043947,-0.352550,-0.481460,0.010010,-0.874782,
0.999,-0.937528,0.045656,-0.345225,-0.481460,0.010010,-0.874782,
0.000,-0.937528,0.045656,-0.358653,-0.480483,0.011719,-0.877712,
1.010,-0.937528,-0.002686,-0.362804,-0.481948,0.016358,-0.881130,
1.190,-0.937528,0.040284,-0.358165,-0.484390,0.016358,-0.881130,
0.674,-0.937528,0.040284,-0.358165,-0.484390,0.014161,-0.877468,
0.000,-0.921903,0.042482,-0.351329,-0.484390,0.013184,-0.878200,
1.004,-0.921903,0.042482,-0.353526,-0.484390,0.000000,-0.878200,
1.009,-0.908719,0.042482,-0.353526,-0.484390,0.015137,-0.881130,
0.000,-0.921903,0.040284,-0.359386,-0.479751,0.011963,-0.878689,
0.991,-0.937528,0.041261,-0.358409,-0.484390,0.011963,-0.877224,
0.999,-0.937528,0.041261,-0.358409,-0.478286,0.009033,-0.877224,
0.000,-0.937528,0.042970,-0.344981,-0.477065,0.008301,-0.877468,
1.001,-0.937528,0.042482,-0.360851,-0.476089,0.010010,-0.882595,
1.000,-0.937528,0.011231,-0.360851,-0.476089,0.010010,-0.882595,
0.000,-0.937528,0.044435,-0.363048,-0.484390,0.013184,-0.883816,
1.024,-0.937528,0.045412,-0.362560,-0.484390,-0.004883,-0.876247,
0.975,-0.937528,0.045412,-0.362560,-0.479507,0.010743,-0.876247,
0.000,-0.921903,0.040529,-0.363292,-0.484390,0.010010,-0.873806,
1.001,-0.937528,0.039308,-0.363048,-0.480483,0.013184,-0.875759,
1.000,-0.937528,0.041261,-0.358165,-0.484390,0.013184,-0.875759,
0.000,-0.937528,0.041261,0.001221,-0.478286,0.009522,-0.876735,
1.021,-0.937528,0.041261,-0.362071,-0.477798,0.008301,-0.879665,
0.979,-0.937528,0.041261,-0.360851,-0.477798,0.008301,-0.879665,
0.000,-0.937528,0.041261,-0.362804,-0.484390,0.011719,-0.881618,
1.012,-0.937528,0.043214,-0.359142,-0.476089,0.010010,-0.883327,
0.994,-0.937528,0.044435,-0.360118,-0.476089,0.010010,-0.883327,
0.000,-0.937528,0.044435,-0.360118,-0.475356,0.010254,-0.884304,
0.995,-0.937528,0.044191,-0.356944,-0.477798,0.012696,-0.879421,
1.008,-0.937528,0.044679,-0.355235,-0.484390,0.000000,-0.879421,
0.000,-0.924833,0.044679,-0.355235,-0.484390,0.014649,-0.875026,
0.992,0.000000,0.042726,-0.358409,-0.473891,0.014649,-0.876980,
1.018,-0.921903,0.041017,-0.361095,-0.484390,0.014649,-0.876980,
0.000,-0.917996,0.041017,-0.361095,-0.471694,0.013428,-0.874538,
0.983,-0.921903,0.043702,-0.363048,-0.484390,0.012696,-0.011231,
0.997,-0.921903,0.042726,-0.356700,-0.476577,0.012696,-0.870632,
0.000,-0.921903,0.042726,-0.356700,-0.484390,0.011719,-0.873073,
1.001,-0.921903,0.041749,-0.357188,-0.478774,0.011963,-0.875271,
1.006,-0.921903,0.044923,-0.360607,-0.478774,0.011963,-0.877224,
0.000,-0.921903,0.044923,-0.360607,-0.484390,0.013916,-0.877224,
0.994,-0.921903,0.046388,-0.359874,-0.475600,0.012207,-0.877712,
1.064,-0.921903,0.046388,-0.361583,-0.484390,0.010498,-0.876491,
0.548,-0.921903,0.046388,-0.361583,-0.476089,0.010498,-0.876491,
0.446,-0.921903,0.045412,-0.360607,-0.484390,0.012940,-0.876735,
0.000,-0.921903,0.045900,-0.359630,-0.477309,0.010743,-0.878200,
1.005,-0.921903,0.044435,-0.362071,-0.477309,0.010743,-0.878200,
0.999,-0.921903,0.044435,-0.362071,-0.484390,0.011719,-0.877956,
1.009,-0.921903,0.042238,-0.359386,-0.484390,0.015137,-0.879909,
0.000,-0.921903,0.040529,-0.356944,-0.477309,0.015137,-0.879909,
0.991,-0.921903,0.031251,-0.356944,-0.475112,-0.001709,-0.879909,
0.000,-0.921903,0.041261,-0.361339,-0.477798,0.012207,-0.875759,
1.000,-0.921903,0.031251,-0.361827,-0.472915,0.012207,-0.875759,
1.000,-0.921903,0.042726,-0.361827,-0.477553,0.013428,-0.876735,
1.008,-0.921903,0.042726,-0.358409,-0.484390,0.014893,-0.877956,
0.000,-0.921903,0.043702,-0.357921,-0.484390,0.014893,-0.877956,
0.993,-0.921903,0.043702,-0.357921,-0.484390,0.016114,-0.875271,
1.009,-0.921903,0.042238,-0.014649,-0.468825,0.013916,-0.876735,
0.000,-0.921903,0.043214,-0.357677,-0.484390,0.013916,-0.876735,
0.990,-0.921903,0.043214,-0.357677,-0.484390,0.010987,-0.877956,
0.000,-0.921903,0.043214,-0.355235,-0.484390,0.012452,-0.875515,
1.000,-0.921903,0.042238,-0.353770,-0.477553,0.012452,-0.890652,
0.999,-0.921903,0.042238,-0.353770,-0.476333,0.012696,-0.873562,
1.009,-0.921903,-0.005371,-0.357188,-0.473647,0.011963,-0.876003,
0.000,-0.921903,0.043458,-0.359386,-0.473647,0.011963,-0.876003,
0.992,-0.921903,0.043458,-0.359386,-0.470961,0.013184,-0.877468,
1.009,-0.937528,0.042970,-0.360118,-0.484390,0.016358,-0.870632,
0.000,-0.937528,0.042970,-0.360851,-0.484390,0.015625,-0.870632,
0.991,-0.936796,0.042970,-0.360851,-0.484390,0.015625,-0.872341,
1.020,0.000000,0.045167,-0.364513,-0.484390,0.014161,-0.874782,
0.593,-0.937528,0.041505,-0.368908,-0.484390,0.011719,-0.874782,
0.099,-0.923368,0.041505,-0.368908,-0.484390,0.011719,-0.874782,
1.005,-0.937528,0.041993,0.011963,-0.484390,0.008789,-0.873562,
0.000,-0.937528,0.041993,-0.363048,-0.472915,0.011475,-0.875026,
1.008,-0.921903,0.043947,-0.361583,-0.472915,0.011475,-0.875026,
0.992,-0.921903,0.043947,-0.361583,-0.479507,0.011475,-0.877224,
0.000,-0.921903,0.042482,-0.362071,-0.479995,0.011963,-0.875759,
0.999,-0.937528,0.042726,-0.367687,-0.479995,0.011963,-0.875759,
1.000,-0.937528,0.042726,-0.367687,-0.476333,0.012940,-0.880398,
0.000,-0.937528,0.045900,-0.362316,-0.484390,0.008301,-0.882107,
1.000,-0.937528,0.046144,-0.357433,-0.484390,0.008301,-0.882107,
1.011,-0.937528,0.046144,-0.357433,-0.484390,0.010010,-0.878933,
0.000,0.000000,0.043214,-0.356700,-0.475112,0.013184,-0.879177,
0.990,-0.921903,0.042726,-0.001709,-0.475112,0.013184,-0.879177,
0.999,-0.921903,0.042726,-0.361095,0.008545,0.013428,-0.880153,
0.000,-0.921903,0.041505,-0.358653,-0.484390,0.014161,-0.876980,
1.008,-0.921903,0.042482,-0.354015,-0.477065,0.014161,-0.876980,
0.993,-0.921903,0.042482,-0.358165,-0.479507,0.013916,-0.875271,
0.000,-0.937528,0.041749,-0.358165,-0.481216,0.014405,-0.874538,
0.999,-0.937528,0.040284,-0.355479,-0.484390,0.014405,-0.874538,
1.011,-0.937528,0.040284,-0.355479,-0.477798,0.012207,-0.877224,
0.990,-0.937528,0.040040,-0.357188,-0.473647,0.011963,-0.878200,
0.000,-0.937528,0.041261,-0.363780,-0.473647,0.011963,-0.878200,
0.999,-0.937528,0.041261,-0.363780,-0.484390,0.013184,-0.876003,
1.011,-0.921903,0.042726,-0.358898,-0.477798,0.009278,-0.878689,
0.000,-0.921903,0.043458,-0.354747,-0.477798,0.009278,-0.878689,
1.204,-0.921903,0.043458,-0.354747,-0.479751,0.010987,-0.877224,
0.428,-0.921903,0.046144,-0.354991,-0.479751,0.014161,-0.874294,
0.000,-0.921903,0.047121,-0.358653,-0.479751,0.010498,-0.879665,
0.000,-0.921903,0.046144,-0.358898,-0.478774,0.010498,-0.879665,
0.986,-0.921903,0.046144,-0.358898,-0.484390,0.011231,-0.882839,
0.000,-0.921903,0.045412,-0.361339,-0.484390,0.011963,-0.877224,
0.000,-0.921903,0.043458,-0.364025,-0.484390,0.000000,-0.877224,
0.987,-0.909940,0.043458,-0.364025,-0.484390,0.012696,-0.873806,
0.000,0.000000,0.043702,-0.362316,-0.484390,0.012207,-0.874782,
1.000,-0.921903,0.043947,-0.357677,-0.479018,0.012207,-0.874782,
1.000,-0.921903,0.043947,-0.357677,-0.477553,0.009766,-0.881130,
0.000,-0.921903,0.042238,-0.354015,-0.476577,0.010743,-0.005371,
1.016,-0.921964,0.046388,-0.359630,-0.476577,0.010743,-0.880398,
0.984,-0.937528,0.046388,-0.359630,-0.484390,0.012452,-0.877712,
0.000,-0.921903,0.048830,-0.360118,-0.480727,0.014161,-0.877956,
1.014,-0.921903,0.045900,-0.360118,-0.480727,0.014161,-0.890652,
0.987,-0.921903,0.045900,-0.360118,-0.476577,0.012696,-0.872097,
0.000,-0.921903,0.043214,-0.363780,-0.484390,0.008545,-0.874050,
1.013,-0.937528,0.042238,-0.358898,-0.475600,0.008545,-0.874050,
0.987,-0.937528,0.042238,-0.358898,-0.476577,0.006348,-0.881863,
0.000,-0.937528,0.044191,-0.358165,-0.474380,0.005371,-0.881374,
1.000,0.000000,0.044191,-0.358165,-0.484390,0.005371,-0.881374,
0.999,-0.937528,0.044191,-0.358165,-0.477065,0.007813,-0.874294,
0.000,-0.921903,0.041261,-0.360851,-0.484390,0.011963,-0.875026,
0.000,-0.921903,0.041505,-0.354747,-0.476089,0.011963,-0.875026,
1.027,-0.921903,0.041505,-0.354747,-0.484390,0.010498,-0.879909,
0.000,-0.921903,0.039308,-0.352061,-0.476089,0.010498,-0.890652,
0.991,-0.937528,0.039796,-0.359142,-0.476089,0.010498,-0.879421,
1.025,-0.937528,0.039796,-0.374767,-0.475112,-0.006104,-0.874294,
0.000,-0.921903,0.043458,-0.362316,-0.484390,0.008789,-0.874294,
1.021,-0.921903,0.031251,-0.362316,-0.477798,0.011719,-0.876980,
0.985,-0.921903,0.044923,-0.360362,-0.478774,0.011719,-0.876980,
0.852,-0.921903,0.044923,-0.360362,-0.484390,0.010743,-0.876491,
0.050,-0.937528,0.043702,-0.356944,-0.484390,0.011719,-0.874538,
1.004,-0.937528,0.041993,-0.355479,0.000000,0.011719,-0.874538,
1.013,-0.937528,0.041993,-0.355479,-0.484390,0.013184,-0.871608,
0.000,-0.921903,0.040040,-0.357677,-0.480727,0.009766,-0.873073,
0.997,-0.921903,0.042238,-0.359142,-0.480727,0.009766,-0.875026,
0.000,-0.921903,0.042238,-0.359142,-0.483413,0.008545,-0.878689,
0.991,-0.921903,0.044435,-0.361095,-0.480972,0.009033,-0.880642,
0.999,-0.937528,0.042970,-0.360607,-0.480972,0.009033,-0.880642,
1.013,-0.937528,0.042970,-0.360607,-0.484390,0.010498,-0.878200,
0.000,-0.921903,0.040529,-0.361583,-0.478042,0.012207,-0.876735,
0.987,-0.921903,0.041261,-0.363292,-0.484390,0.012207,-0.876735,
1.015,-0.921903,0.041261,-0.363292,-0.484390,0.013672,-0.876735,
0.000,-0.921903,0.043947,-0.362071,-0.474868,0.015625,-0.875271,
0.985,-0.921903,0.044435,-0.359386,-0.484390,0.015625,-0.875271,
0.000,-0.921903,0.044435,-0.359386,-0.484390,0.012696,-0.877712,
0.999,-0.921903,0.043702,-0.358898,-0.484390,0.011231,-0.877712,
1.000,-0.921903,0.042238,-0.358653,-0.484390,0.011231,-0.877712,
1.014,-0.921903,-0.004639,-0.358653,-0.474380,0.011231,-0.871608,
0.000,-0.921903,0.039308,-0.356456,-0.476333,0.007569,-0.872097,
0.987,-0.921903,0.031251,-0.358409,-0.472182,0.007569,-0.872097,
1.011,-0.921903,0.043458,-0.358409,-0.484390,0.008545,-0.873806,
0.000,-0.921903,0.046876,-0.361583,-0.477553,0.010498,-0.876491,
0.993,-0.921903,0.046876,-0.359386,-0.477553,0.010498,-0.876491,
0.000,-0.921903,0.031251,-0.355235,-0.474868,0.012452,-0.879177,
0.996,-0.921903,0.044191,-0.355235,-0.484390,0.011963,-0.878200,
1.000,-0.921903,0.043214,-0.354503,0.009278,0.009033,-0.877956,
0.000,-0.921903,0.046388,-0.358898,-0.484390,0.009033,-0.877956,
1.605,-0.921903,0.046388,-0.358898,0.000000,0.010254,-0.878200,
0.000,-0.921903,0.047609,-0.363536,-0.477553,0.011231,-0.875026,
1.009,-0.921903,0.043947,-0.361827,-0.484390,0.011231,-0.875026,
1.000,-0.921903,0.043947,-0.361827,-0.475600,0.011231,-0.871852,
0.000,-0.921903,0.040773,-0.359386,-0.484390,0.013916,-0.872585,
0.999,-0.921903,0.044191,-0.360607,-0.484390,0.013916,-0.872585,
1.007,-0.921903,0.044191,-0.360607,-0.484390,0.014649,-0.876735,
0.000,-0.921903,0.042482,-0.360118,-0.484390,0.013184,-0.874782,
0.994,-0.921903,0.039308,-0.358898,-0.479263,0.013184,-0.874782,
1.005,-0.921903,0.039308,-0.358898,-0.483169,0.012940,-0.874782,
0.000,-0.921903,0.041993,-0.361827,-0.484390,0.009522,-0.877224,
0.995,-0.937528,0.040773,-0.359386,-0.484390,0.009522,-0.877224,
1.032,-0.937528,0.040773,-0.359386,-0.480483,0.009522,-0.890652,
0.116,-0.921903,0.038575,-0.355235,-0.478530,0.010743,-0.875271,
1.002,-0.921903,0.040773,-0.358653,-0.478530,-0.004883,-0.875271,
0.000,-0.921903,0.040773,-0.358653,-0.481460,0.012940,-0.873317,
1.003,-0.937528,0.031251,-0.358653,-0.469008,0.011963,-0.873073,
0.990,-0.937528,0.047121,-0.359874,-0.483413,0.011963,-0.873073,
0.000,-0.937528,0.047121,-0.359874,-0.484390,0.007080,-0.874050,
0.996,-0.921903,0.040773,-0.362071,-0.484390,0.009033,-0.876491,
0.992,-0.921903,0.041993,-0.359142,0.000000,0.009033,-0.876491,
0.000,-0.921903,0.041993,-0.374767,-0.484390,0.009278,-0.875515,
1.002,-0.921903,0.046144,-0.363048,-0.475112,0.008301,-0.872829,
1.000,-0.937528,0.047853,-0.361339,-0.475112,0.008301,-0.872829,
0.000,-0.921903,0.046876,-0.355968,-0.484390,0.009033,-0.873317,
1.007,-0.921903,0.046876,-0.355968,-0.476089,0.010498,-0.875759,
1.009,-0.921903,0.041261,-0.358409,-0.476089,0.008301,-0.873806,
0.000,-0.937528,0.039308,-0.359142,-0.477065,0.008301,-0.873806,
0.991,-0.937528,0.039308,-0.359142,-0.478530,0.006348,-0.874050,
1.003,-0.937528,0.042726,-0.361583,-0.477553,0.000000,-0.876491,
1.006,-0.927030,0.044191,-0.360607,-0.477553,0.010498,-0.876491,
0.530,-0.937528,0.044191,-0.360607,-0.479018,0.012452,-0.875271,
0.230,-0.937528,0.041261,-0.362804,-0.479263,0.013916,-0.874538,
1.038,-0.937528,0.040773,-0.362316,-0.484390,0.013916,-0.874538,
0.000,-0.937528,0.040773,-0.362316,-0.480239,0.010987,-0.875026,
0.966,-0.937528,0.046388,-0.355968,-0.477798,0.010010,-0.874782,
1.001,-0.937528,0.045412,-0.355968,-0.484390,0.010010,-0.874782,
0.000,-0.937528,0.045412,-0.355968,-0.484390,0.011719,-0.875271,
0.999,-0.937528,0.045412,-0.355968,-0.484390,0.000000,-0.877956,
1.009,-0.930204,0.045412,-0.355968,-0.484390,0.007324,-0.877956,
0.000,-0.937528,0.045412,-0.355968,0.007813,0.009766,-0.881130,
0.992,-0.937528,0.041749,-0.360607,-0.474135,0.011719,-0.881618,
1.008,-0.937528,0.043214,-0.364025,-0.484390,0.011719,-0.881618,
0.000,-0.937528,0.043214,-0.364025,-0.474135,0.006592,-0.890652,
0.992,-0.937528,0.042970,-0.358165,-0.474135,0.007324,-0.873806,
1.008,-0.921903,0.042970,-0.358653,-0.474135,0.007324,-0.873806,
0.000,-0.921903,0.042970,-0.374279,-0.477553,0.011231,-0.873073,
0.992,-0.921903,0.042970,-0.364757,-0.484390,0.012696,-0.872341,
1.008,-0.921903,0.039552,-0.363780,-0.481460,0.012696,-0.872341,
0.000,-0.921903,0.039552,-0.361095,-0.480727,0.011231,-0.876735,
0.992,-0.921903,0.039552,-0.001709,-0.478286,0.012452,-0.880886,
1.009,-0.921903,0.040040,-0.359874,-0.478286,0.012452,-0.879421,
0.000,-0.921903,0.040284,-0.354015,-0.477798,0.013428,-0.879421,
0.990,-0.921903,0.040284,-0.354015,-0.484390,0.011231,-0.876491,
1.009,-0.921903,0.040529,-0.353038,-0.476577,0.010254,-0.890652,
0.000,-0.921903,0.041749,-0.359142,-0.484390,0.010254,-0.880886,
1.030,-0.921903,0.041749,-0.359142,-0.474624,0.009278,-0.884548,
0.973,-0.921903,0.042482,-0.362071,-0.475844,0.010254,-0.874294,
0.000,-0.921903,0.043947,-0.357188,-0.475844,0.010254,-0.874294,
1.003,-0.921903,0.043947,-0.357188,-0.474868,0.011963,-0.868434,
1.318,-0.921903,0.044435,-0.357677,-0.484390,0.011475,-0.872341,
0.000,-0.921903,0.044435,-0.357677,-0.484390,0.011475,-0.872341,
1.015,-0.921903,0.044435,-0.357677,-0.477553,0.012452,-0.875515,
0.000,-0.921903,0.040040,-0.358409,-0.484390,0.009278,-0.875271,
0.989,-0.937528,0.040284,-0.358898,-0.484390,0.009278,-0.875271,
1.010,-0.937528,0.040284,-0.358898,-0.476821,0.009033,-0.875515,
0.000,-0.937528,0.039308,-0.359630,-0.477553,0.013672,-0.884792,
1.161,-0.937528,0.031251,-0.365490,-0.472670,0.013672,-0.884792,
1.015,-0.937528,0.042970,-0.365490,-0.476089,0.013672,-0.883572,
0.000,-0.937528,0.045656,-0.364757,-0.475844,0.014649,-0.876980,
0.986,-0.921903,0.044679,-0.361339,-0.484390,0.014649,-0.876980,
0.000,-0.921903,0.044679,-0.361339,-0.484390,0.016114,-0.879665,
0.999,-0.921903,0.043702,-0.001465,-0.476333,0.012696,-0.879909,
1.001,-0.921903,0.042238,-0.361095,-0.476333,0.012696,-0.879909,
1.012,-0.921903,0.042482,-0.362316,-0.484390,0.009522,-0.876491,
0.000,-0.921903,0.042482,-0.362316,-0.478286,0.011475,-0.874782,
